LabVIEW Measurement	
Writer_Version	2
Reader_Version	2
Separator	Tab
Decimal_Separator	,
Multi_Headings	Yes
X_Columns	One
Time_Pref	Absolute
Operator	d.nicolai
Date	2023/11/09
Time	16:04:05,6565121999996605588
***End_of_Header***	
	
Channels	2		
Samples	1000	1000	
Date	2023/11/09	2023/11/09	
Time	16:04:11,0005127999994824373	16:04:11,0005127999994824373	
Y_Unit_Label	Volts	Volts	
X_Dimension	Time	Time	
X0	0,0000000000000000E+0	0,0000000000000000E+0	
Delta_X	0,001000	0,001000	
***End_of_Header***			
X_Value	powebox	triggerbox	Comment
0,000000	0,627441	0,882416
0,001000	0,607452	4,999847
0,002000	0,624237	4,999847
0,003000	0,613556	4,999847
0,004000	0,612488	4,999847
0,005000	0,613403	4,999847
0,006000	0,617218	4,999847
0,007000	0,623932	4,999847
0,008000	0,611267	4,999847
0,009000	0,624847	4,059753
0,010000	0,609741	3,137512
0,011000	0,632782	3,456268
0,012000	0,611267	4,480591
0,013000	0,639801	4,999847
0,014000	0,609894	4,999847
0,015000	0,639038	4,999847
0,016000	0,613708	4,999847
0,017000	0,625153	4,999847
0,018000	0,616608	4,791718
0,019000	0,628662	3,038483
0,020000	0,630341	3,265686
0,021000	0,625458	4,513702
0,022000	0,636749	4,999847
0,023000	0,621643	4,999847
0,024000	0,642548	4,999847
0,025000	0,617523	4,999847
0,026000	0,646362	4,999847
0,027000	0,608368	4,999847
0,028000	0,650940	4,999847
0,029000	0,601501	3,984680
0,030000	0,638580	4,293365
0,031000	0,609436	3,455505
0,032000	0,630341	3,513794
0,033000	0,617371	4,903412
0,034000	0,622253	4,999847
0,035000	0,594788	4,999847
0,036000	0,563202	4,999847
0,037000	0,594177	4,999847
0,038000	0,582428	4,403076
0,039000	0,631256	3,056488
0,040000	0,590515	3,061523
0,041000	0,646973	4,407806
0,042000	0,591583	4,999847
0,043000	0,654755	4,999847
0,044000	0,603638	4,999847
0,045000	0,643921	4,999847
0,046000	0,616302	4,999847
0,047000	0,634003	4,999847
0,048000	0,626068	4,999847
0,049000	0,628967	3,530579
0,050000	0,642548	4,979401
0,051000	0,625610	3,304138
0,052000	0,654144	4,762573
0,053000	0,620422	4,999847
0,054000	0,663910	4,999847
0,055000	0,612183	4,999847
0,056000	0,670929	4,999847
0,057000	0,611267	4,999847
0,058000	0,670776	4,515228
0,059000	0,625000	3,159943
0,060000	0,660553	3,496399
0,061000	0,637360	4,980469
0,062000	0,649261	4,999847
0,063000	0,646210	4,999847
0,064000	0,638885	4,999847
0,065000	0,657654	4,999847
0,066000	0,633392	4,999847
0,067000	0,670319	4,999847
0,068000	0,625458	4,999847
0,069000	0,678406	4,161530
0,070000	0,616608	4,200134
0,071000	0,686951	3,846588
0,072000	0,618286	4,253082
0,073000	0,679169	4,999847
0,074000	0,636292	4,999847
0,075000	0,667572	4,999847
0,076000	0,649109	4,999847
0,077000	0,658875	4,999847
0,078000	0,663452	4,999847
0,079000	0,646210	3,146667
0,080000	0,673218	2,882690
0,081000	0,638123	4,999847
0,082000	0,685120	4,999847
0,083000	0,632019	4,999847
0,084000	0,696411	4,999847
0,085000	0,626373	4,999847
0,086000	0,706024	4,999847
0,087000	0,637054	4,999847
0,088000	0,693359	4,999847
0,089000	0,651550	3,260803
0,090000	0,678253	4,001007
0,091000	0,664825	3,222198
0,092000	0,665436	4,533234
0,093000	0,676422	4,999847
0,094000	0,650787	4,999847
0,095000	0,684357	4,999847
0,096000	0,639801	4,999847
0,097000	0,699158	4,999847
0,098000	0,632629	4,676361
0,099000	0,710907	2,691803
0,100000	0,624847	3,789825
0,101000	0,713806	4,999847
0,102000	0,641479	4,999847
0,103000	0,698090	4,999847
0,104000	0,662537	4,999847
0,105000	0,686951	4,999847
0,106000	0,678406	4,999847
0,107000	0,673065	4,999847
0,108000	0,693817	4,999847
0,109000	0,662994	4,177856
0,110000	0,708008	3,218842
0,111000	0,654144	3,386383
0,112000	0,721436	4,742737
0,113000	0,642395	4,999847
0,114000	0,731659	4,999847
0,115000	0,646362	4,999847
0,116000	0,730286	4,999847
0,117000	0,664825	4,999847
0,118000	0,711212	4,572754
0,119000	0,680695	2,710571
0,120000	0,695648	4,536591
0,121000	0,696259	4,378357
0,122000	0,684814	4,999847
0,123000	0,714722	4,999847
0,124000	0,673676	4,999847
0,125000	0,728149	4,999847
0,126000	0,666809	4,999847
0,127000	0,743408	4,999847
0,128000	0,656128	4,999847
0,129000	0,755005	4,023743
0,130000	0,669098	3,999481
0,131000	0,749359	4,027710
0,132000	0,688782	4,999847
0,133000	0,731964	4,999847
0,134000	0,705872	4,999847
0,135000	0,713654	4,999847
0,136000	0,720520	4,999847
0,137000	0,689850	4,999847
0,138000	0,716095	4,680786
0,139000	0,676117	2,380981
0,140000	0,744324	3,559723
0,141000	0,672150	4,948120
0,142000	0,760651	4,999847
0,143000	0,665894	4,999847
0,144000	0,773926	4,999847
0,145000	0,684204	4,999847
0,146000	0,757599	4,999847
0,147000	0,704651	4,999847
0,148000	0,743256	4,869690
0,149000	0,724792	4,312286
0,150000	0,728760	3,891144
0,151000	0,741730	4,040527
0,152000	0,713348	4,263916
0,153000	0,756683	4,999847
0,154000	0,699768	4,999847
0,155000	0,770416	4,999847
0,156000	0,686798	4,999847
0,157000	0,783081	4,999847
0,158000	0,687103	4,351959
0,159000	0,794983	3,642273
0,160000	0,708923	2,901611
0,161000	0,777740	4,573822
0,162000	0,729065	4,999847
0,163000	0,760956	4,999847
0,164000	0,747833	4,999847
0,165000	0,743713	4,999847
0,166000	0,763550	4,999847
0,167000	0,727081	4,999847
0,168000	0,778503	4,687500
0,169000	0,715179	3,328552
0,170000	0,793915	3,771515
0,171000	0,704803	4,999847
0,172000	0,810394	4,999847
0,173000	0,713196	4,999847
0,174000	0,813904	4,999847
0,175000	0,734253	4,999847
0,176000	0,793762	4,999847
0,177000	0,752563	4,999847
0,178000	0,779572	4,133606
0,179000	0,772400	3,104706
0,180000	0,766907	2,728271
0,181000	0,791779	4,999847
0,182000	0,751953	4,999847
0,183000	0,807800	4,999847
0,184000	0,737915	4,999847
0,185000	0,822601	4,999847
0,186000	0,724487	4,999847
0,187000	0,836792	4,999847
0,188000	0,744019	4,999847
0,189000	0,832672	3,684845
0,190000	0,760956	3,677673
0,191000	0,815582	3,688812
0,192000	0,781250	4,392700
0,193000	0,800171	4,999847
0,194000	0,730438	4,999847
0,195000	0,724945	4,999847
0,196000	0,722198	4,999847
0,197000	0,727234	4,999847
0,198000	0,842590	4,999847
0,199000	0,758972	2,947845
0,200000	0,842133	3,373413
0,201000	0,779266	4,999847
0,202000	0,820312	4,999847
0,203000	0,797272	4,999847
0,204000	0,800629	4,999847
0,205000	0,813599	4,999847
0,206000	0,784760	4,999847
0,207000	0,829620	4,999847
0,208000	0,766907	4,999847
0,209000	0,842590	4,177856
0,210000	0,752411	3,820190
0,211000	0,852509	4,640045
0,212000	0,759430	4,999847
0,213000	0,855560	4,999847
0,214000	0,778656	4,999847
0,215000	0,843811	4,999847
0,216000	0,797729	4,999847
0,217000	0,820618	4,999847
0,218000	0,814819	4,891510
0,219000	0,805206	3,080139
0,220000	0,832825	2,207184
0,221000	0,788269	4,999847
0,222000	0,846100	4,999847
0,223000	0,773468	4,999847
0,224000	0,855255	4,999847
0,225000	0,759125	4,999847
0,226000	0,859985	4,999847
0,227000	0,776367	4,999847
0,228000	0,858002	4,999847
0,229000	0,795135	3,605042
0,230000	0,841522	4,519958
0,231000	0,813904	3,942261
0,232000	0,821686	4,999847
0,233000	0,831757	4,999847
0,234000	0,805664	4,999847
0,235000	0,846710	4,999847
0,236000	0,789795	4,999847
0,237000	0,856171	4,999847
0,238000	0,777130	4,999847
0,239000	0,860901	2,650452
0,240000	0,740509	3,507233
0,241000	0,663147	4,999847
0,242000	0,641785	4,999847
0,243000	0,632172	4,999847
0,244000	0,627289	4,999847
0,245000	0,625000	4,999847
0,246000	0,623932	4,999847
0,247000	0,623169	4,999847
0,248000	0,623169	4,999847
0,249000	0,622864	3,812408
0,250000	0,622711	3,447418
0,251000	0,622864	3,436279
0,252000	0,622406	4,740601
0,253000	0,622711	4,999847
0,254000	0,622559	4,999847
0,255000	0,622101	4,999847
0,256000	0,621948	4,999847
0,257000	0,622406	4,999847
0,258000	0,622101	4,325409
0,259000	0,622253	2,904968
0,260000	0,622406	4,076996
0,261000	0,622101	4,927063
0,262000	0,603333	4,999847
0,263000	0,578461	4,999847
0,264000	0,567017	4,999847
0,265000	0,561218	4,999847
0,266000	0,556946	4,999847
0,267000	0,555115	4,999847
0,268000	0,555725	4,663239
0,269000	0,556946	3,657990
0,270000	0,557098	4,093628
0,271000	0,558472	4,401398
0,272000	0,558472	4,981995
0,273000	0,558014	4,999847
0,274000	0,557251	4,999847
0,275000	0,558777	4,999847
0,276000	0,557098	4,999847
0,277000	0,556946	4,999847
0,278000	0,557098	4,301605
0,279000	0,557098	2,709503
0,280000	0,557709	3,531036
0,281000	0,557556	4,683533
0,282000	0,557709	4,999847
0,283000	0,554657	4,999847
0,284000	0,553894	4,999847
0,285000	0,549011	4,999847
0,286000	0,551300	4,999847
0,287000	0,551910	4,999847
0,288000	0,554962	4,999847
0,289000	0,553894	3,830872
0,290000	0,553894	4,454193
0,291000	0,555725	4,090118
0,292000	0,555115	4,375763
0,293000	0,554962	4,999847
0,294000	0,554657	4,999847
0,295000	0,555573	4,999847
0,296000	0,551300	4,999847
0,297000	0,550842	4,999847
0,298000	0,552216	4,418793
0,299000	0,550842	2,725220
0,300000	0,541534	3,989258
0,301000	0,543518	3,922882
0,302000	0,542450	4,999847
0,303000	0,542603	4,999847
0,304000	0,540771	4,999847
0,305000	0,541840	4,999847
0,306000	0,541534	4,999847
0,307000	0,543060	4,999847
0,308000	0,543976	4,999847
0,309000	0,544739	3,096771
0,310000	0,543365	3,818817
0,311000	0,540161	3,899384
0,312000	0,543213	4,999847
0,313000	0,537109	4,999847
0,314000	0,541229	4,999847
0,315000	0,540009	4,999847
0,316000	0,542908	4,999847
0,317000	0,543976	4,861450
0,318000	0,545349	4,412079
0,319000	0,543213	2,713928
0,320000	0,544281	2,730865
0,321000	0,545197	4,999847
0,322000	0,545959	4,999847
0,323000	0,546722	4,999847
0,324000	0,548096	4,999847
0,325000	0,555115	4,999847
0,326000	0,572052	4,999847
0,327000	0,576477	4,999847
0,328000	0,579529	4,999847
0,329000	0,582886	3,696594
0,330000	0,588226	2,866516
0,331000	0,588074	3,448792
0,332000	0,589294	4,999847
0,333000	0,589447	4,999847
0,334000	0,591278	4,999847
0,335000	0,589600	4,999847
0,336000	0,586243	4,999847
0,337000	0,581818	4,999847
0,338000	0,574493	3,844604
0,339000	0,577240	2,588959
0,340000	0,576630	3,546295
0,341000	0,579681	4,999847
0,342000	0,562439	4,999847
0,343000	0,553894	4,999847
0,344000	0,570526	4,999847
0,345000	0,591583	4,999847
0,346000	0,594330	4,999847
0,347000	0,596466	4,999847
0,348000	0,595856	4,999847
0,349000	0,598602	4,179840
0,350000	0,597229	4,373322
0,351000	0,598755	4,200439
0,352000	0,603485	4,999847
0,353000	0,602570	4,999847
0,354000	0,598755	4,999847
0,355000	0,598602	4,999847
0,356000	0,606842	4,999847
0,357000	0,599823	4,752808
0,358000	0,601501	3,578796
0,359000	0,595398	2,869263
0,360000	0,599670	4,276886
0,361000	0,595245	4,999847
0,362000	0,594635	4,999847
0,363000	0,592041	4,999847
0,364000	0,588684	4,999847
0,365000	0,588379	4,999847
0,366000	0,586853	4,999847
0,367000	0,584259	4,999847
0,368000	0,584564	4,790802
0,369000	0,585327	3,896027
0,370000	0,583496	4,314423
0,371000	0,581055	4,293213
0,372000	0,577393	4,999847
0,373000	0,583801	4,999847
0,374000	0,582581	4,999847
0,375000	0,585480	4,999847
0,376000	0,581512	4,999847
0,377000	0,579834	4,999847
0,378000	0,578918	4,645386
0,379000	0,577087	2,821503
0,380000	0,577393	3,263245
0,381000	0,575562	4,971771
0,382000	0,576782	4,999847
0,383000	0,571899	4,999847
0,384000	0,575409	4,999847
0,385000	0,572815	4,999847
0,386000	0,580444	4,999847
0,387000	0,574951	4,999847
0,388000	0,581207	4,985504
0,389000	0,574036	4,273987
0,390000	0,577850	3,923950
0,391000	0,573730	2,834930
0,392000	0,577850	4,999847
0,393000	0,578766	4,999847
0,394000	0,578003	4,999847
0,395000	0,579987	4,999847
0,396000	0,577698	4,999847
0,397000	0,583496	4,999847
0,398000	0,572662	4,868469
0,399000	0,583801	2,589417
0,400000	0,575714	2,979126
0,401000	0,589752	4,999847
0,402000	0,577698	4,999847
0,403000	0,606995	4,999847
0,404000	0,597076	4,999847
0,405000	0,605621	4,999847
0,406000	0,599976	4,999847
0,407000	0,601349	4,847565
0,408000	0,605011	4,715576
0,409000	0,602417	3,552399
0,410000	0,608521	4,266357
0,411000	0,601349	4,421387
0,412000	0,614014	4,949188
0,413000	0,600281	4,999847
0,414000	0,617676	4,999847
0,415000	0,597229	4,999847
0,416000	0,620880	4,999847
0,417000	0,601349	4,999847
0,418000	0,595551	4,458313
0,419000	0,587158	2,747498
0,420000	0,596161	3,319855
0,421000	0,594330	4,841614
0,422000	0,595856	4,999847
0,423000	0,599365	4,999847
0,424000	0,595856	4,999847
0,425000	0,604401	4,999847
0,426000	0,585937	4,999847
0,427000	0,625305	4,999847
0,428000	0,610504	4,999847
0,429000	0,634613	3,557281
0,430000	0,612946	4,329071
0,431000	0,638123	4,008331
0,432000	0,617523	4,996643
0,433000	0,629730	4,999847
0,434000	0,616608	4,999847
0,435000	0,627747	4,999847
0,436000	0,628357	4,999847
0,437000	0,628967	4,999847
0,438000	0,636292	4,411926
0,439000	0,624542	2,859650
0,440000	0,640106	3,344269
0,441000	0,621033	4,660339
0,442000	0,645905	4,999847
0,443000	0,622101	4,999847
0,444000	0,653534	4,999847
0,445000	0,579987	4,999847
0,446000	0,625000	4,999847
0,447000	0,617523	4,999847
0,448000	0,641632	4,999847
0,449000	0,633392	3,502045
0,450000	0,638275	3,892975
0,451000	0,641174	3,473663
0,452000	0,627594	4,999847
0,453000	0,640411	4,999847
0,454000	0,618134	4,999847
0,455000	0,646057	4,999847
0,456000	0,615845	4,999847
0,457000	0,655670	4,519958
0,458000	0,612793	4,908752
0,459000	0,661926	2,443848
0,460000	0,619354	4,444733
0,461000	0,656281	4,999847
0,462000	0,605774	4,999847
0,463000	0,628357	4,999847
0,464000	0,622253	4,999847
0,465000	0,624390	4,999847
0,466000	0,633392	4,999847
0,467000	0,626678	4,999847
0,468000	0,644531	4,655762
0,469000	0,623627	3,334656
0,470000	0,651855	4,532776
0,471000	0,623627	3,464661
0,472000	0,659943	4,999847
0,473000	0,603333	4,999847
0,474000	0,653839	4,999847
0,475000	0,608368	4,999847
0,476000	0,643463	4,999847
0,477000	0,621338	4,804993
0,478000	0,645599	4,999847
0,479000	0,647583	2,744904
0,480000	0,648804	3,306122
0,481000	0,659180	4,999847
0,482000	0,642395	4,999847
0,483000	0,661621	4,999847
0,484000	0,640106	4,999847
0,485000	0,672760	4,999847
0,486000	0,625305	4,999847
0,487000	0,673828	4,999847
0,488000	0,619812	4,745331
0,489000	0,671234	3,217773
0,490000	0,635223	4,036560
0,491000	0,664368	4,168396
0,492000	0,647430	4,999847
0,493000	0,659332	4,999847
0,494000	0,658112	4,999847
0,495000	0,651855	4,999847
0,496000	0,668030	4,999847
0,497000	0,626068	4,875031
0,498000	0,661469	4,608459
0,499000	0,614014	2,628784
0,500000	0,669861	4,407654
0,501000	0,608215	4,999847
0,502000	0,679932	4,999847
0,503000	0,613098	4,999847
0,504000	0,670624	4,999847
0,505000	0,633240	4,999847
0,506000	0,671692	4,999847
0,507000	0,662689	4,999847
0,508000	0,672150	4,953613
0,509000	0,677795	3,630981
0,510000	0,666809	4,297943
0,511000	0,688019	3,007355
0,512000	0,659637	4,404602
0,513000	0,695648	4,999847
0,514000	0,653534	4,999847
0,515000	0,704041	4,999847
0,516000	0,650330	4,999847
0,517000	0,713043	4,999847
0,518000	0,658417	4,489136
0,519000	0,702972	2,754364
0,520000	0,670929	3,591003
0,521000	0,692291	4,999847
0,522000	0,680695	4,999847
0,523000	0,679016	4,999847
0,524000	0,690918	4,999847
0,525000	0,673676	4,999847
0,526000	0,702972	4,999847
0,527000	0,660858	4,999847
0,528000	0,709686	4,220276
0,529000	0,652313	3,336182
0,530000	0,717621	4,166565
0,531000	0,645294	2,983856
0,532000	0,714111	4,999847
0,533000	0,643158	4,999847
0,534000	0,690002	4,999847
0,535000	0,656738	4,999847
0,536000	0,675354	4,999847
0,537000	0,670929	4,999847
0,538000	0,663300	4,319611
0,539000	0,686188	2,797699
0,540000	0,651550	3,656464
0,541000	0,699310	4,196472
0,542000	0,645905	4,999847
0,543000	0,714569	4,999847
0,544000	0,639954	4,999847
0,545000	0,727234	4,999847
0,546000	0,652618	4,999847
0,547000	0,695648	4,999847
0,548000	0,637665	4,792786
0,549000	0,698090	3,465729
0,550000	0,677795	4,710541
0,551000	0,689240	3,229980
0,552000	0,695038	4,999847
0,553000	0,688782	4,999847
0,554000	0,716705	4,999847
0,555000	0,678711	4,999847
0,556000	0,727844	4,999847
0,557000	0,666656	4,999847
0,558000	0,740204	3,998718
0,559000	0,658569	2,937622
0,560000	0,752411	3,983612
0,561000	0,672760	4,705658
0,562000	0,746918	4,999847
0,563000	0,691376	4,999847
0,564000	0,724030	4,999847
0,565000	0,704193	4,999847
0,566000	0,713348	4,999847
0,567000	0,721741	4,999847
0,568000	0,701904	4,259949
0,569000	0,737305	3,565826
0,570000	0,693359	4,999847
0,571000	0,752563	2,715149
0,572000	0,684052	4,999847
0,573000	0,764008	4,999847
0,574000	0,675201	4,999847
0,575000	0,774994	4,999847
0,576000	0,696564	4,999847
0,577000	0,766296	4,999847
0,578000	0,712891	3,768158
0,579000	0,733795	3,028717
0,580000	0,717621	3,816376
0,581000	0,718994	4,999847
0,582000	0,738983	4,999847
0,583000	0,715942	4,999847
0,584000	0,759277	4,999847
0,585000	0,701141	4,999847
0,586000	0,769653	4,999847
0,587000	0,690155	4,999847
0,588000	0,782928	3,680267
0,589000	0,695343	3,478088
0,590000	0,795135	4,159698
0,591000	0,713501	3,169250
0,592000	0,775146	4,999847
0,593000	0,730591	4,999847
0,594000	0,759430	4,999847
0,595000	0,747986	4,999847
0,596000	0,738678	4,999847
0,597000	0,761261	4,999847
0,598000	0,716858	3,728638
0,599000	0,771637	3,249512
0,600000	0,703735	3,779907
0,601000	0,785370	4,999847
0,602000	0,691071	4,999847
0,603000	0,799561	4,999847
0,604000	0,704346	4,999847
0,605000	0,797272	4,999847
0,606000	0,725403	4,999847
0,607000	0,782776	4,999847
0,608000	0,747833	4,023590
0,609000	0,765228	3,761292
0,610000	0,764618	4,999847
0,611000	0,753174	3,688354
0,612000	0,782623	4,999847
0,613000	0,738373	4,999847
0,614000	0,798950	4,999847
0,615000	0,732117	4,999847
0,616000	0,817261	4,999847
0,617000	0,723877	4,999847
0,618000	0,832367	4,497528
0,619000	0,735626	3,085175
0,620000	0,835266	4,218597
0,621000	0,765076	4,627228
0,622000	0,827637	4,999847
0,623000	0,789032	4,999847
0,624000	0,795135	4,999847
0,625000	0,796356	4,999847
0,626000	0,781403	4,999847
0,627000	0,815277	4,999847
0,628000	0,764160	4,540863
0,629000	0,828705	3,636627
0,630000	0,745697	4,632263
0,631000	0,839691	3,666382
0,632000	0,728760	4,999847
0,633000	0,725098	4,999847
0,634000	0,722656	4,999847
0,635000	0,788574	4,999847
0,636000	0,794067	4,999847
0,637000	0,817719	4,352112
0,638000	0,777588	4,181061
0,639000	0,833130	3,316956
0,640000	0,759125	3,374939
0,641000	0,844421	4,474335
0,642000	0,742035	4,999847
0,643000	0,852661	4,999847
0,644000	0,762177	4,999847
0,645000	0,849457	4,999847
0,646000	0,779266	4,999847
0,647000	0,837402	4,999847
0,648000	0,803833	4,013062
0,649000	0,809326	3,676300
0,650000	0,783234	4,813080
0,651000	0,788422	3,595276
0,652000	0,830536	4,999847
0,653000	0,786133	4,999847
0,654000	0,850067	4,999847
0,655000	0,761414	4,999847
0,656000	0,855255	4,999847
0,657000	0,756531	4,827271
0,658000	0,858917	3,754120
0,659000	0,776825	3,026733
0,660000	0,840302	3,997650
0,661000	0,792389	4,624939
0,662000	0,823669	4,999847
0,663000	0,813141	4,999847
0,664000	0,800323	4,999847
0,665000	0,827789	4,999847
0,666000	0,784302	4,999847
0,667000	0,842896	4,698792
0,668000	0,773315	4,999847
0,669000	0,855560	3,392944
0,670000	0,759735	4,354553
0,671000	0,861053	4,084015
0,672000	0,772095	4,999847
0,673000	0,861969	4,999847
0,674000	0,799408	4,999847
0,675000	0,859375	4,999847
0,676000	0,825348	4,999847
0,677000	0,848083	4,999847
0,678000	0,729065	3,467712
0,679000	0,672607	3,052979
0,680000	0,646362	4,047394
0,681000	0,634308	4,933167
0,682000	0,628967	4,999847
0,683000	0,626068	4,999847
0,684000	0,625000	4,999847
0,685000	0,624237	4,999847
0,686000	0,623932	4,999847
0,687000	0,623474	4,999847
0,688000	0,623322	4,164429
0,689000	0,623474	3,212433
0,690000	0,623322	4,287567
0,691000	0,623474	3,860321
0,692000	0,623169	4,999847
0,693000	0,623474	4,999847
0,694000	0,623474	4,999847
0,695000	0,622711	4,999847
0,696000	0,623016	4,999847
0,697000	0,622864	4,999847
0,698000	0,622864	3,823547
0,699000	0,598297	2,887726
0,700000	0,571289	2,951355
0,701000	0,568390	4,999847
0,702000	0,571136	4,999847
0,703000	0,569916	4,999847
0,704000	0,567627	4,999847
0,705000	0,566864	4,999847
0,706000	0,567474	4,999847
0,707000	0,565643	4,999847
0,708000	0,565796	4,508209
0,709000	0,566406	3,006897
0,710000	0,565033	4,948730
0,711000	0,565948	4,296722
0,712000	0,565338	4,999847
0,713000	0,561829	4,999847
0,714000	0,563202	4,999847
0,715000	0,561218	4,999847
0,716000	0,562592	4,999847
0,717000	0,563507	4,999847
0,718000	0,561371	3,956451
0,719000	0,560760	2,667389
0,720000	0,560913	3,301544
0,721000	0,562134	4,999847
0,722000	0,559845	4,999847
0,723000	0,559540	4,999847
0,724000	0,555725	4,999847
0,725000	0,555573	4,999847
0,726000	0,559235	4,999847
0,727000	0,558472	4,999847
0,728000	0,561676	4,689178
0,729000	0,564880	3,011017
0,730000	0,566864	3,963165
0,731000	0,567169	2,878265
0,732000	0,565491	4,999847
0,733000	0,566864	4,999847
0,734000	0,569305	4,999847
0,735000	0,571136	4,999847
0,736000	0,572510	4,999847
0,737000	0,553284	4,999847
0,738000	0,543671	3,414459
0,739000	0,556641	2,689667
0,740000	0,566559	4,554138
0,741000	0,568542	4,999847
0,742000	0,572662	4,999847
0,743000	0,574951	4,999847
0,744000	0,577240	4,999847
0,745000	0,576935	4,999847
0,746000	0,579529	4,999847
0,747000	0,579376	4,999847
0,748000	0,574493	4,999847
0,749000	0,569611	3,058319
0,750000	0,565948	3,823395
0,751000	0,565643	4,122772
0,752000	0,530243	4,655914
0,753000	0,546570	4,999847
0,754000	0,553284	4,999847
0,755000	0,557404	4,999847
0,756000	0,554504	4,999847
0,757000	0,556183	4,999847
0,758000	0,560150	4,413300
0,759000	0,555725	2,772217
0,760000	0,553436	4,113617
0,761000	0,556183	4,999847
0,762000	0,560913	4,999847
0,763000	0,559540	4,999847
0,764000	0,559845	4,999847
0,765000	0,560913	4,999847
0,766000	0,559998	4,999847
0,767000	0,558624	4,999847
0,768000	0,558472	4,514313
0,769000	0,558167	3,054504
0,770000	0,556488	3,580780
0,771000	0,561829	3,930206
0,772000	0,567322	4,626312
0,773000	0,569153	4,999847
0,774000	0,548401	4,999847
0,775000	0,539856	4,999847
0,776000	0,555115	4,999847
0,777000	0,563049	4,999847
0,778000	0,565186	3,251648
0,779000	0,565643	2,921753
0,780000	0,564117	4,258881
0,781000	0,547333	4,999847
0,782000	0,536804	4,999847
0,783000	0,535431	4,999847
0,784000	0,534515	4,999847
0,785000	0,539398	4,999847
0,786000	0,547028	4,999847
0,787000	0,552673	4,999847
0,788000	0,555115	4,732361
0,789000	0,555878	3,119659
0,790000	0,559235	4,999847
0,791000	0,559692	3,860931
0,792000	0,564117	4,999847
0,793000	0,566101	4,999847
0,794000	0,568542	4,999847
0,795000	0,571594	4,999847
0,796000	0,570679	4,999847
0,797000	0,570679	4,904480
0,798000	0,568390	3,399353
0,799000	0,567474	2,812805
0,800000	0,567017	3,142090
0,801000	0,571289	4,998474
0,802000	0,574493	4,999847
0,803000	0,575256	4,999847
0,804000	0,576630	4,999847
0,805000	0,582886	4,999847
0,806000	0,586090	4,999847
0,807000	0,582733	4,999847
0,808000	0,580750	4,124146
0,809000	0,594330	3,244781
0,810000	0,593262	4,154663
0,811000	0,593872	3,290100
0,812000	0,599518	4,999847
0,813000	0,598145	4,999847
0,814000	0,591736	4,999847
0,815000	0,593414	4,999847
0,816000	0,598907	4,999847
0,817000	0,598450	4,999847
0,818000	0,596313	3,812408
0,819000	0,598145	3,392792
0,820000	0,596771	3,333740
0,821000	0,599823	4,281921
0,822000	0,597229	4,999847
0,823000	0,594635	4,999847
0,824000	0,579071	4,999847
0,825000	0,595245	4,999847
0,826000	0,590363	4,999847
0,827000	0,601044	4,999847
0,828000	0,600739	4,375458
0,829000	0,605927	3,480988
0,830000	0,603027	4,509277
0,831000	0,603638	3,405151
0,832000	0,603027	4,999847
0,833000	0,601044	4,999847
0,834000	0,605164	4,999847
0,835000	0,594177	4,999847
0,836000	0,603943	4,999847
0,837000	0,598907	4,806519
0,838000	0,610199	4,055939
0,839000	0,594635	3,089447
0,840000	0,610199	4,928284
0,841000	0,596313	4,999847
0,842000	0,608826	4,999847
0,843000	0,601959	4,999847
0,844000	0,608521	4,999847
0,845000	0,606232	4,999847
0,846000	0,579681	4,999847
0,847000	0,584869	4,999847
0,848000	0,575867	3,947906
0,849000	0,583954	3,122559
0,850000	0,574341	4,284821
0,851000	0,589447	3,468018
0,852000	0,573120	4,999847
0,853000	0,594482	4,999847
0,854000	0,547943	4,999847
0,855000	0,564270	4,999847
0,856000	0,549622	4,999847
0,857000	0,580750	4,720306
0,858000	0,573730	4,586945
0,859000	0,584259	2,598572
0,860000	0,583801	3,964081
0,861000	0,582733	4,740448
0,862000	0,591125	4,999847
0,863000	0,601501	4,999847
0,864000	0,619507	4,999847
0,865000	0,608521	4,999847
0,866000	0,631256	4,999847
0,867000	0,611115	4,999847
0,868000	0,638275	4,944763
0,869000	0,610657	3,325653
0,870000	0,635986	4,466400
0,871000	0,615234	3,634796
0,872000	0,630188	4,999847
0,873000	0,621033	4,999847
0,874000	0,626373	4,999847
0,875000	0,628662	4,999847
0,876000	0,623322	4,999847
0,877000	0,635834	4,999847
0,878000	0,619507	3,047485
0,879000	0,640564	3,715820
0,880000	0,618896	3,719788
0,881000	0,648193	4,720612
0,882000	0,613861	4,999847
0,883000	0,652618	4,999847
0,884000	0,607300	4,999847
0,885000	0,643158	4,999847
0,886000	0,628662	4,999847
0,887000	0,645294	4,880981
0,888000	0,640106	4,569092
0,889000	0,641022	3,320923
0,890000	0,645752	3,792572
0,891000	0,635376	2,986145
0,892000	0,652313	4,999847
0,893000	0,631256	4,999847
0,894000	0,659180	4,999847
0,895000	0,630035	4,999847
0,896000	0,666504	4,999847
0,897000	0,625153	4,447327
0,898000	0,668793	3,650970
0,899000	0,638275	3,591919
0,900000	0,664062	3,477020
0,901000	0,647583	4,999847
0,902000	0,660248	4,999847
0,903000	0,657501	4,999847
0,904000	0,652008	4,999847
0,905000	0,659027	4,999847
0,906000	0,644836	4,999847
0,907000	0,668793	4,831848
0,908000	0,639801	3,998871
0,909000	0,675964	3,527679
0,910000	0,630188	3,963776
0,911000	0,680389	4,841766
0,912000	0,631104	4,999847
0,913000	0,678711	4,999847
0,914000	0,641632	4,999847
0,915000	0,670013	4,999847
0,916000	0,648041	4,999847
0,917000	0,656738	4,649048
0,918000	0,664215	4,342346
0,919000	0,659485	3,491516
0,920000	0,676575	3,212433
0,921000	0,630798	4,521942
0,922000	0,657043	4,999847
0,923000	0,607300	4,999847
0,924000	0,656128	4,999847
0,925000	0,598907	4,999847
0,926000	0,663605	4,999847
0,927000	0,604858	4,864197
0,928000	0,654144	4,804687
0,929000	0,617676	3,214874
0,930000	0,644531	4,218445
0,931000	0,631409	4,286041
0,932000	0,637054	4,999847
0,933000	0,644836	4,999847
0,934000	0,627594	4,999847
0,935000	0,654907	4,999847
0,936000	0,621490	4,999847
0,937000	0,666656	4,999847
0,938000	0,617218	4,028015
0,939000	0,676575	2,854004
0,940000	0,610504	3,570709
0,941000	0,681305	4,999847
0,942000	0,624847	4,999847
0,943000	0,670624	4,999847
0,944000	0,639496	4,999847
0,945000	0,659943	4,999847
0,946000	0,651703	4,999847
0,947000	0,649567	4,999847
0,948000	0,662994	4,999847
0,949000	0,639954	2,732544
0,950000	0,673981	4,643707
0,951000	0,631714	4,989319
0,952000	0,684204	4,999847
0,953000	0,622711	4,999847
0,954000	0,693970	4,999847
0,955000	0,616150	4,999847
0,956000	0,691071	4,999847
0,957000	0,600739	4,977875
0,958000	0,655670	4,153137
0,959000	0,642853	3,239594
0,960000	0,665741	3,114624
0,961000	0,667114	4,999847
0,962000	0,660400	4,999847
0,963000	0,682068	4,999847
0,964000	0,650330	4,999847
0,965000	0,692749	4,999847
0,966000	0,648346	4,999847
0,967000	0,709229	4,999847
0,968000	0,638885	4,623413
0,969000	0,718231	3,208466
0,970000	0,643616	4,483185
0,971000	0,714874	4,683533
0,972000	0,669403	4,995117
0,973000	0,705261	4,999847
0,974000	0,682068	4,999847
0,975000	0,694580	4,999847
0,976000	0,697632	4,999847
0,977000	0,686951	4,999847
0,978000	0,711670	3,973083
0,979000	0,678101	3,200073
0,980000	0,723419	4,588776
0,981000	0,664215	4,999847
0,982000	0,731506	4,999847
0,983000	0,663757	4,999847
0,984000	0,745544	4,999847
0,985000	0,676575	4,999847
0,986000	0,728912	4,999847
0,987000	0,672455	4,999847
0,988000	0,715790	4,441071
0,989000	0,702362	2,442627
0,990000	0,712128	4,999847
0,991000	0,720978	4,904175
0,992000	0,701141	4,999847
0,993000	0,731964	4,999847
0,994000	0,688019	4,999847
0,995000	0,742950	4,999847
0,996000	0,658417	4,999847
0,997000	0,742798	4,864807
0,998000	0,649872	4,921112
0,999000	0,750427	3,064575

