LabVIEW Measurement	
Writer_Version	2
Reader_Version	2
Separator	Tab
Decimal_Separator	,
Multi_Headings	Yes
X_Columns	One
Time_Pref	Absolute
Operator	d.nicolai
Date	2023/11/09
Time	16:04:05,6565121999996605588
***End_of_Header***	
	
Channels	2		
Samples	1000	1000	
Date	2023/11/09	2023/11/09	
Time	16:04:19,4775169999997532415	16:04:19,4775169999997532415	
Y_Unit_Label	Volts	Volts	
X_Dimension	Time	Time	
X0	0,0000000000000000E+0	0,0000000000000000E+0	
Delta_X	0,001000	0,001000	
***End_of_Header***			
X_Value	powebox	triggerbox	Comment
0,000000	0,794678	0,958405
0,001000	0,688324	4,764404
0,002000	0,805664	4,999847
0,003000	0,707092	4,999847
0,004000	0,787201	4,999847
0,005000	0,730591	4,999847
0,006000	0,769501	4,999847
0,007000	0,751495	4,999847
0,008000	0,753326	4,549561
0,009000	0,770721	4,174500
0,010000	0,739441	4,999847
0,011000	0,788422	3,694611
0,012000	0,727081	4,966888
0,013000	0,805206	4,999847
0,014000	0,716400	4,999847
0,015000	0,821838	4,999847
0,016000	0,711823	4,999847
0,017000	0,825806	4,999847
0,018000	0,736389	4,251099
0,019000	0,805511	3,339081
0,020000	0,757904	3,372040
0,021000	0,789642	4,999847
0,022000	0,778809	4,999847
0,023000	0,773468	4,999847
0,024000	0,797577	4,999847
0,025000	0,759430	4,999847
0,026000	0,815430	4,999847
0,027000	0,746155	4,999847
0,028000	0,832825	4,999847
0,029000	0,735016	2,999878
0,030000	0,733490	3,305664
0,031000	0,736237	3,583679
0,032000	0,737762	4,999847
0,033000	0,806732	4,999847
0,034000	0,779877	4,999847
0,035000	0,819397	4,999847
0,036000	0,763550	4,999847
0,037000	0,835419	4,890442
0,038000	0,749359	4,999847
0,039000	0,850983	2,574615
0,040000	0,738220	3,542786
0,041000	0,859375	4,999847
0,042000	0,761871	4,999847
0,043000	0,840302	4,999847
0,044000	0,783691	4,999847
0,045000	0,820618	4,999847
0,046000	0,803070	4,999847
0,047000	0,805359	4,999847
0,048000	0,823059	4,999847
0,049000	0,790100	3,647003
0,050000	0,842285	3,847504
0,051000	0,774689	4,054871
0,052000	0,858002	4,999847
0,053000	0,760651	4,999847
0,054000	0,870056	4,999847
0,055000	0,760193	4,999847
0,056000	0,859222	4,999847
0,057000	0,779114	4,999847
0,058000	0,822906	4,391632
0,059000	0,780945	3,007202
0,060000	0,822144	3,316040
0,061000	0,821533	4,999847
0,062000	0,811462	4,999847
0,063000	0,843811	4,999847
0,064000	0,796509	4,999847
0,065000	0,861053	4,999847
0,066000	0,782166	4,999847
0,067000	0,872955	4,999847
0,068000	0,768280	4,999847
0,069000	0,879517	3,285675
0,070000	0,778961	4,451141
0,071000	0,869598	3,869324
0,072000	0,801849	4,969177
0,073000	0,848541	4,999847
0,074000	0,823059	4,999847
0,075000	0,830994	4,999847
0,076000	0,727997	4,999847
0,077000	0,679779	4,999847
0,078000	0,657501	4,862061
0,079000	0,647430	2,674866
0,080000	0,643005	2,588806
0,081000	0,640564	4,999847
0,082000	0,639954	4,999847
0,083000	0,639191	4,999847
0,084000	0,638885	4,999847
0,085000	0,638733	4,999847
0,086000	0,638580	4,999847
0,087000	0,636139	4,999847
0,088000	0,637360	4,999847
0,089000	0,637817	3,286438
0,090000	0,637665	4,999847
0,091000	0,638123	3,948517
0,092000	0,638123	4,999847
0,093000	0,637970	4,999847
0,094000	0,638123	4,999847
0,095000	0,637970	4,999847
0,096000	0,633392	4,999847
0,097000	0,565643	4,999847
0,098000	0,539856	4,471436
0,099000	0,525208	2,493286
0,100000	0,519562	4,122162
0,101000	0,517883	4,999847
0,102000	0,518341	4,999847
0,103000	0,518341	4,999847
0,104000	0,518646	4,999847
0,105000	0,517883	4,999847
0,106000	0,516205	4,999847
0,107000	0,517578	4,999847
0,108000	0,516510	4,231415
0,109000	0,517120	3,116150
0,110000	0,512695	4,207306
0,111000	0,514679	3,380890
0,112000	0,513000	4,952087
0,113000	0,516357	4,999847
0,114000	0,510559	4,999847
0,115000	0,517120	4,999847
0,116000	0,517731	4,999847
0,117000	0,520782	4,999847
0,118000	0,520172	4,232788
0,119000	0,519409	2,599335
0,120000	0,520172	3,268280
0,121000	0,516663	4,826202
0,122000	0,517273	4,999847
0,123000	0,514526	4,999847
0,124000	0,517120	4,999847
0,125000	0,517120	4,999847
0,126000	0,523071	4,999847
0,127000	0,521851	4,999847
0,128000	0,525055	4,446106
0,129000	0,523224	3,501282
0,130000	0,525818	4,999847
0,131000	0,524139	4,146729
0,132000	0,525360	4,787598
0,133000	0,522919	4,999847
0,134000	0,521851	4,999847
0,135000	0,523987	4,999847
0,136000	0,521088	4,999847
0,137000	0,522614	4,928131
0,138000	0,518646	4,817810
0,139000	0,522461	2,754822
0,140000	0,518951	3,715363
0,141000	0,523834	4,763031
0,142000	0,520325	4,999847
0,143000	0,521393	4,999847
0,144000	0,518341	4,999847
0,145000	0,520325	4,999847
0,146000	0,519257	4,999847
0,147000	0,520782	4,999847
0,148000	0,521545	4,999847
0,149000	0,519562	3,523254
0,150000	0,521393	4,815369
0,151000	0,519867	4,104309
0,152000	0,522919	4,731750
0,153000	0,520630	4,999847
0,154000	0,525208	4,999847
0,155000	0,522003	4,999847
0,156000	0,524750	4,999847
0,157000	0,523071	4,999847
0,158000	0,534515	3,613129
0,159000	0,545349	2,300262
0,160000	0,517578	3,222198
0,161000	0,508728	4,999847
0,162000	0,528870	4,999847
0,163000	0,538330	4,999847
0,164000	0,541534	4,999847
0,165000	0,543060	4,999847
0,166000	0,542603	4,999847
0,167000	0,543823	4,999847
0,168000	0,543671	4,461823
0,169000	0,545349	3,207245
0,170000	0,545807	3,952484
0,171000	0,546875	3,285828
0,172000	0,547180	4,999847
0,173000	0,547638	4,999847
0,174000	0,547791	4,999847
0,175000	0,548401	4,999847
0,176000	0,548553	4,999847
0,177000	0,549164	4,999847
0,178000	0,548553	3,796082
0,179000	0,550537	2,767944
0,180000	0,551758	2,926941
0,181000	0,554504	4,999847
0,182000	0,553284	4,999847
0,183000	0,553131	4,999847
0,184000	0,549469	4,999847
0,185000	0,555725	4,999847
0,186000	0,555573	4,999847
0,187000	0,558777	4,999847
0,188000	0,557861	4,999847
0,189000	0,558929	3,651733
0,190000	0,557709	3,968048
0,191000	0,558319	4,278717
0,192000	0,560455	4,999847
0,193000	0,557556	4,999847
0,194000	0,561676	4,999847
0,195000	0,557709	4,999847
0,196000	0,564423	4,999847
0,197000	0,557709	4,999847
0,198000	0,567017	3,844910
0,199000	0,558167	2,719116
0,200000	0,568237	4,030914
0,201000	0,562592	4,510956
0,202000	0,568695	4,999847
0,203000	0,565643	4,999847
0,204000	0,567474	4,999847
0,205000	0,568085	4,999847
0,206000	0,566406	4,999847
0,207000	0,570831	4,999847
0,208000	0,565033	4,772034
0,209000	0,573883	3,639679
0,210000	0,565186	4,999847
0,211000	0,578003	3,347168
0,212000	0,565186	4,894562
0,213000	0,582123	4,999847
0,214000	0,565491	4,999847
0,215000	0,580750	4,999847
0,216000	0,570831	4,999847
0,217000	0,579376	4,999847
0,218000	0,575867	3,597260
0,219000	0,578461	3,028870
0,220000	0,580902	3,255463
0,221000	0,577240	4,562836
0,222000	0,585937	4,999847
0,223000	0,575714	4,999847
0,224000	0,590210	4,999847
0,225000	0,568695	4,999847
0,226000	0,591888	4,999847
0,227000	0,571289	4,952393
0,228000	0,596313	4,999847
0,229000	0,576172	3,876343
0,230000	0,593567	4,167328
0,231000	0,581207	3,563538
0,232000	0,589752	4,999847
0,233000	0,586243	4,999847
0,234000	0,587616	4,999847
0,235000	0,593719	4,999847
0,236000	0,586853	4,999847
0,237000	0,599976	4,742889
0,238000	0,584717	4,304504
0,239000	0,605774	3,208466
0,240000	0,581665	2,836761
0,241000	0,610962	4,999847
0,242000	0,579987	4,999847
0,243000	0,610809	4,999847
0,244000	0,587006	4,999847
0,245000	0,605927	4,999847
0,246000	0,594177	4,999847
0,247000	0,601654	4,999847
0,248000	0,600128	4,850616
0,249000	0,597229	3,861389
0,250000	0,607452	4,999847
0,251000	0,593109	3,891907
0,252000	0,613556	4,999847
0,253000	0,586395	4,999847
0,254000	0,618744	4,999847
0,255000	0,585785	4,999847
0,256000	0,626068	4,999847
0,257000	0,588531	4,953003
0,258000	0,622711	3,898621
0,259000	0,596161	3,153381
0,260000	0,615082	3,226929
0,261000	0,605316	4,999847
0,262000	0,600281	4,999847
0,263000	0,595245	4,999847
0,264000	0,597992	4,999847
0,265000	0,618591	4,999847
0,266000	0,601044	4,999847
0,267000	0,629425	4,999847
0,268000	0,596008	4,418030
0,269000	0,636292	3,339996
0,270000	0,592346	4,183350
0,271000	0,640869	3,837738
0,272000	0,598602	4,999847
0,273000	0,633392	4,999847
0,274000	0,608826	4,999847
0,275000	0,626068	4,999847
0,276000	0,617523	4,999847
0,277000	0,587769	4,999847
0,278000	0,611877	4,999847
0,279000	0,603943	3,025818
0,280000	0,631104	3,436890
0,281000	0,605621	4,759674
0,282000	0,643768	4,999847
0,283000	0,601807	4,999847
0,284000	0,651703	4,999847
0,285000	0,596924	4,999847
0,286000	0,652008	4,999847
0,287000	0,608673	4,999847
0,288000	0,643005	4,999847
0,289000	0,620880	3,576508
0,290000	0,634460	4,232941
0,291000	0,631256	3,685303
0,292000	0,625610	4,999847
0,293000	0,640717	4,999847
0,294000	0,616608	4,999847
0,295000	0,650024	4,999847
0,296000	0,611267	4,999847
0,297000	0,659790	4,987793
0,298000	0,608215	4,070129
0,299000	0,670166	2,869415
0,300000	0,608978	3,991699
0,301000	0,663757	4,999847
0,302000	0,623322	4,999847
0,303000	0,654144	4,999847
0,304000	0,635681	4,999847
0,305000	0,644836	4,999847
0,306000	0,647125	4,999847
0,307000	0,635529	4,999847
0,308000	0,657959	4,999847
0,309000	0,628052	3,160400
0,310000	0,668640	4,632111
0,311000	0,621490	4,512634
0,312000	0,679626	4,999847
0,313000	0,615692	4,999847
0,314000	0,687561	4,999847
0,315000	0,622864	4,999847
0,316000	0,675964	4,999847
0,317000	0,638275	4,999847
0,318000	0,664520	4,877930
0,319000	0,651093	2,964478
0,320000	0,653839	2,620239
0,321000	0,659790	4,952545
0,322000	0,642548	4,999847
0,323000	0,674591	4,999847
0,324000	0,634155	4,999847
0,325000	0,685883	4,999847
0,326000	0,626984	4,999847
0,327000	0,697021	4,850006
0,328000	0,619354	4,976501
0,329000	0,697784	3,325043
0,330000	0,634766	4,218445
0,331000	0,684967	3,439026
0,332000	0,650787	4,999847
0,333000	0,671692	4,999847
0,334000	0,662994	4,999847
0,335000	0,657959	4,999847
0,336000	0,677185	4,999847
0,337000	0,647278	4,999847
0,338000	0,688934	4,890594
0,339000	0,636597	2,870789
0,340000	0,701599	3,608398
0,341000	0,631256	4,848022
0,342000	0,715027	4,999847
0,343000	0,629730	4,999847
0,344000	0,708771	4,999847
0,345000	0,649719	4,999847
0,346000	0,695190	4,999847
0,347000	0,667419	4,999847
0,348000	0,681915	4,564056
0,349000	0,682526	3,131866
0,350000	0,669556	4,671783
0,351000	0,697632	3,311462
0,352000	0,659790	4,999847
0,353000	0,710907	4,999847
0,354000	0,648193	4,999847
0,355000	0,723114	4,999847
0,356000	0,639648	4,999847
0,357000	0,735474	4,962616
0,358000	0,646667	4,670105
0,359000	0,720520	2,682495
0,360000	0,666962	3,695221
0,361000	0,706024	4,925995
0,362000	0,684662	4,999847
0,363000	0,692139	4,999847
0,364000	0,699310	4,999847
0,365000	0,643311	4,999847
0,366000	0,701141	4,999847
0,367000	0,661469	4,999847
0,368000	0,728455	4,733734
0,369000	0,653076	3,215332
0,370000	0,714264	4,999847
0,371000	0,621185	3,847198
0,372000	0,720978	4,999847
0,373000	0,639343	4,999847
0,374000	0,703278	4,999847
0,375000	0,657043	4,999847
0,376000	0,687408	4,999847
0,377000	0,675201	4,999847
0,378000	0,670319	4,727020
0,379000	0,689697	2,809296
0,380000	0,656891	4,000702
0,381000	0,704651	4,760284
0,382000	0,645752	4,999847
0,383000	0,719299	4,999847
0,384000	0,635529	4,999847
0,385000	0,732574	4,999847
0,386000	0,632629	4,999847
0,387000	0,731201	4,999847
0,388000	0,654907	4,493866
0,389000	0,713959	3,089142
0,390000	0,673218	4,999847
0,391000	0,696869	3,744965
0,392000	0,695038	4,811554
0,393000	0,682678	4,999847
0,394000	0,711670	4,999847
0,395000	0,669861	4,999847
0,396000	0,727692	4,999847
0,397000	0,657959	4,928436
0,398000	0,742340	4,073486
0,399000	0,646515	2,716064
0,400000	0,755157	4,041138
0,401000	0,651703	4,719543
0,402000	0,744324	4,999847
0,403000	0,676422	4,999847
0,404000	0,725250	4,999847
0,405000	0,696411	4,999847
0,406000	0,709076	4,999847
0,407000	0,715637	4,999847
0,408000	0,693359	4,797821
0,409000	0,732880	3,215637
0,410000	0,675354	4,999847
0,411000	0,746918	2,994995
0,412000	0,668640	4,999847
0,413000	0,763550	4,999847
0,414000	0,659180	4,999847
0,415000	0,776520	4,999847
0,416000	0,677948	4,999847
0,417000	0,756531	4,999847
0,418000	0,699615	4,521484
0,419000	0,738373	2,996979
0,420000	0,720520	3,093719
0,421000	0,723114	4,335785
0,422000	0,740051	4,999847
0,423000	0,709839	4,999847
0,424000	0,758057	4,999847
0,425000	0,695953	4,999847
0,426000	0,773163	4,999847
0,427000	0,686188	4,999847
0,428000	0,788879	4,999847
0,429000	0,680695	3,090363
0,430000	0,795898	4,999847
0,431000	0,705719	3,048401
0,432000	0,770874	4,999847
0,433000	0,724792	4,999847
0,434000	0,755615	4,999847
0,435000	0,746613	4,999847
0,436000	0,739899	4,999847
0,437000	0,765533	4,999847
0,438000	0,725861	3,946228
0,439000	0,782013	2,922211
0,440000	0,714264	3,674927
0,441000	0,799103	4,730530
0,442000	0,702515	4,999847
0,443000	0,813751	4,999847
0,444000	0,708160	4,999847
0,445000	0,809937	4,999847
0,446000	0,731659	4,999847
0,447000	0,792084	4,999847
0,448000	0,753784	4,247131
0,449000	0,775909	3,249969
0,450000	0,774384	4,129181
0,451000	0,760651	3,820343
0,452000	0,791931	4,999847
0,453000	0,746918	4,999847
0,454000	0,809479	4,999847
0,455000	0,732880	4,999847
0,456000	0,825348	4,999847
0,457000	0,720978	4,999847
0,458000	0,839233	3,300323
0,459000	0,734558	2,881775
0,460000	0,825500	3,348389
0,461000	0,758362	4,924774
0,462000	0,807343	4,999847
0,463000	0,778503	4,999847
0,464000	0,790100	4,999847
0,465000	0,797729	4,999847
0,466000	0,774078	4,999847
0,467000	0,714417	4,999847
0,468000	0,711365	4,018555
0,469000	0,726318	3,597717
0,470000	0,750122	3,976898
0,471000	0,837097	3,234558
0,472000	0,769348	4,999847
0,473000	0,817719	4,999847
0,474000	0,789490	4,999847
0,475000	0,798798	4,999847
0,476000	0,807953	4,999847
0,477000	0,782623	4,999847
0,478000	0,826111	4,151917
0,479000	0,767822	2,687073
0,480000	0,843811	3,894348
0,481000	0,755157	4,103699
0,482000	0,859070	4,999847
0,483000	0,746918	4,999847
0,484000	0,865631	4,999847
0,485000	0,770569	4,999847
0,486000	0,845032	4,999847
0,487000	0,791626	4,999847
0,488000	0,826874	4,019775
0,489000	0,812683	3,458710
0,490000	0,809174	4,782562
0,491000	0,831299	3,379822
0,492000	0,793915	4,999847
0,493000	0,849609	4,999847
0,494000	0,778656	4,999847
0,495000	0,864563	4,999847
0,496000	0,765839	4,999847
0,497000	0,875397	4,930878
0,498000	0,767517	3,933105
0,499000	0,869904	2,887878
0,500000	0,789948	3,827209
0,501000	0,847778	4,999847
0,502000	0,811005	4,999847
0,503000	0,830688	4,999847
0,504000	0,831757	4,999847
0,505000	0,814056	4,999847
0,506000	0,850830	4,999847
0,507000	0,798645	4,999847
0,508000	0,866547	4,999847
0,509000	0,783539	3,270264
0,510000	0,876770	3,777771
0,511000	0,770416	3,575897
0,512000	0,881195	4,999847
0,513000	0,758362	4,999847
0,514000	0,693817	4,999847
0,515000	0,664520	4,999847
0,516000	0,651093	4,999847
0,517000	0,645142	4,566498
0,518000	0,642395	3,212738
0,519000	0,640717	3,291779
0,520000	0,639954	3,161163
0,521000	0,639191	4,999847
0,522000	0,639191	4,999847
0,523000	0,639191	4,999847
0,524000	0,639038	4,999847
0,525000	0,638885	4,999847
0,526000	0,639038	4,999847
0,527000	0,638885	4,999847
0,528000	0,638885	3,812561
0,529000	0,638733	3,380737
0,530000	0,638580	3,702240
0,531000	0,638885	3,941193
0,532000	0,638428	4,999847
0,533000	0,638123	4,999847
0,534000	0,638580	4,999847
0,535000	0,587006	4,999847
0,536000	0,545197	4,999847
0,537000	0,525055	4,640961
0,538000	0,516205	3,483582
0,539000	0,510101	3,468475
0,540000	0,509949	2,378998
0,541000	0,507660	4,601135
0,542000	0,510101	4,999847
0,543000	0,501709	4,999847
0,544000	0,502777	4,999847
0,545000	0,502167	4,999847
0,546000	0,504761	4,999847
0,547000	0,504456	4,999847
0,548000	0,506287	4,999847
0,549000	0,505676	2,947540
0,550000	0,505676	4,402466
0,551000	0,505371	4,315186
0,552000	0,498047	4,999847
0,553000	0,498352	4,999847
0,554000	0,497131	4,999847
0,555000	0,499268	4,999847
0,556000	0,494232	4,999847
0,557000	0,496216	4,999847
0,558000	0,494080	4,326630
0,559000	0,496368	3,338165
0,560000	0,494690	3,934479
0,561000	0,496063	4,999847
0,562000	0,494537	4,999847
0,563000	0,493774	4,999847
0,564000	0,494385	4,999847
0,565000	0,495453	4,999847
0,566000	0,498047	4,999847
0,567000	0,497589	4,855957
0,568000	0,500031	4,999847
0,569000	0,499268	3,214569
0,570000	0,468750	4,039307
0,571000	0,482788	3,737793
0,572000	0,494537	4,999847
0,573000	0,493011	4,999847
0,574000	0,496063	4,999847
0,575000	0,495148	4,999847
0,576000	0,497894	4,999847
0,577000	0,499268	4,362488
0,578000	0,500183	3,706665
0,579000	0,500488	3,179016
0,580000	0,500336	3,848724
0,581000	0,501556	4,999847
0,582000	0,500946	4,999847
0,583000	0,500336	4,999847
0,584000	0,499420	4,999847
0,585000	0,499725	4,999847
0,586000	0,499573	4,999847
0,587000	0,478973	4,999847
0,588000	0,490112	4,975433
0,589000	0,496826	2,772522
0,590000	0,509033	4,005127
0,591000	0,520782	4,947510
0,592000	0,521088	4,999847
0,593000	0,521698	4,999847
0,594000	0,521698	4,999847
0,595000	0,524445	4,999847
0,596000	0,525208	4,999847
0,597000	0,524445	4,923553
0,598000	0,523987	4,400330
0,599000	0,526886	3,445282
0,600000	0,524292	2,938385
0,601000	0,527496	4,999847
0,602000	0,524445	4,999847
0,603000	0,527344	4,999847
0,604000	0,525360	4,999847
0,605000	0,527649	4,999847
0,606000	0,528107	4,999847
0,607000	0,528717	4,999847
0,608000	0,530701	4,656982
0,609000	0,531006	2,843323
0,610000	0,535278	4,999847
0,611000	0,534668	3,359680
0,612000	0,538635	4,999847
0,613000	0,534973	4,999847
0,614000	0,539551	4,999847
0,615000	0,531006	4,999847
0,616000	0,539398	4,999847
0,617000	0,534821	4,996033
0,618000	0,540314	3,563538
0,619000	0,537415	2,792969
0,620000	0,538788	4,593811
0,621000	0,539398	4,952698
0,622000	0,536346	4,999847
0,623000	0,540314	4,999847
0,624000	0,536194	4,999847
0,625000	0,542603	4,999847
0,626000	0,532990	4,999847
0,627000	0,544891	4,993744
0,628000	0,530090	4,952850
0,629000	0,547333	2,783508
0,630000	0,531769	4,727783
0,631000	0,547638	4,057312
0,632000	0,536652	4,999847
0,633000	0,545654	4,999847
0,634000	0,541382	4,999847
0,635000	0,543976	4,999847
0,636000	0,545197	4,999847
0,637000	0,540466	4,999847
0,638000	0,547943	4,370422
0,639000	0,533447	3,123779
0,640000	0,550385	4,321136
0,641000	0,533600	4,999847
0,642000	0,556488	4,999847
0,643000	0,534363	4,999847
0,644000	0,560913	4,999847
0,645000	0,537415	4,999847
0,646000	0,558319	4,999847
0,647000	0,546112	4,999847
0,648000	0,555725	4,608765
0,649000	0,552826	2,894897
0,650000	0,554047	4,999847
0,651000	0,559692	4,383545
0,652000	0,553131	4,999847
0,653000	0,565796	4,999847
0,654000	0,551605	4,999847
0,655000	0,571747	4,999847
0,656000	0,549774	4,999847
0,657000	0,576172	4,999847
0,658000	0,547638	3,682251
0,659000	0,577393	2,277985
0,660000	0,554199	3,464203
0,661000	0,573425	4,999847
0,662000	0,561371	4,999847
0,663000	0,570221	4,999847
0,664000	0,568848	4,999847
0,665000	0,563202	4,999847
0,666000	0,573883	4,999847
0,667000	0,560455	4,999847
0,668000	0,579834	4,076080
0,669000	0,556946	2,786865
0,670000	0,585937	4,999847
0,671000	0,554810	4,707336
0,672000	0,563354	4,999847
0,673000	0,518494	4,999847
0,674000	0,573273	4,999847
0,675000	0,556793	4,999847
0,676000	0,581055	4,999847
0,677000	0,572052	4,788971
0,678000	0,578766	3,470001
0,679000	0,581207	2,067261
0,680000	0,574951	4,674988
0,681000	0,590363	4,999847
0,682000	0,571594	4,999847
0,683000	0,597839	4,999847
0,684000	0,567932	4,999847
0,685000	0,604858	4,999847
0,686000	0,565033	4,999847
0,687000	0,610657	4,999847
0,688000	0,569611	3,914642
0,689000	0,604095	2,764740
0,690000	0,580902	4,901733
0,691000	0,598450	2,661896
0,692000	0,589600	4,999847
0,693000	0,589142	4,999847
0,694000	0,595856	4,999847
0,695000	0,583038	4,999847
0,696000	0,604401	4,999847
0,697000	0,576019	4,999847
0,698000	0,611725	3,917847
0,699000	0,571747	3,361816
0,700000	0,619354	3,130951
0,701000	0,565948	4,094543
0,702000	0,620270	4,999847
0,703000	0,576019	4,999847
0,704000	0,611267	4,999847
0,705000	0,588531	4,999847
0,706000	0,603333	4,999847
0,707000	0,599365	4,999847
0,708000	0,594177	4,177856
0,709000	0,608826	3,014069
0,710000	0,589294	4,999847
0,711000	0,618591	3,979340
0,712000	0,584106	4,999847
0,713000	0,628357	4,999847
0,714000	0,580292	4,999847
0,715000	0,637817	4,999847
0,716000	0,579681	4,999847
0,717000	0,634003	4,730988
0,718000	0,594330	3,332214
0,719000	0,625458	3,480377
0,720000	0,606537	4,698792
0,721000	0,616913	4,999847
0,722000	0,618744	4,999847
0,723000	0,609589	4,999847
0,724000	0,629272	4,999847
0,725000	0,602264	4,999847
0,726000	0,638885	4,999847
0,727000	0,595093	4,999847
0,728000	0,647583	4,068298
0,729000	0,587311	3,128357
0,730000	0,655975	4,301147
0,731000	0,591431	4,585876
0,732000	0,644379	4,999847
0,733000	0,606079	4,999847
0,734000	0,634460	4,999847
0,735000	0,619659	4,999847
0,736000	0,623474	4,999847
0,737000	0,630951	4,999847
0,738000	0,612946	3,602448
0,739000	0,642242	3,544159
0,740000	0,606232	3,575745
0,741000	0,654144	4,743195
0,742000	0,598602	4,999847
0,743000	0,664062	4,999847
0,744000	0,591583	4,999847
0,745000	0,666962	4,999847
0,746000	0,605011	4,999847
0,747000	0,654755	4,999847
0,748000	0,621033	4,510651
0,749000	0,643463	3,471375
0,750000	0,635223	4,286041
0,751000	0,631409	3,634033
0,752000	0,647125	4,999847
0,753000	0,620880	4,999847
0,754000	0,659027	4,999847
0,755000	0,609894	4,999847
0,756000	0,669861	4,999847
0,757000	0,601044	4,999847
0,758000	0,680695	3,055725
0,759000	0,595245	4,250183
0,760000	0,674896	3,491669
0,761000	0,614624	4,999847
0,762000	0,661011	4,999847
0,763000	0,632935	4,999847
0,764000	0,649109	4,999847
0,765000	0,648346	4,999847
0,766000	0,637512	4,999847
0,767000	0,662689	4,978180
0,768000	0,627136	3,798523
0,769000	0,676575	2,974091
0,770000	0,616302	4,339600
0,771000	0,688782	4,674225
0,772000	0,608215	4,999847
0,773000	0,700378	4,999847
0,774000	0,601959	4,999847
0,775000	0,659943	4,999847
0,776000	0,619965	4,999847
0,777000	0,665588	4,999847
0,778000	0,646362	3,909149
0,779000	0,656281	4,103546
0,780000	0,665283	2,467194
0,781000	0,644989	4,748383
0,782000	0,680847	4,999847
0,783000	0,632019	4,999847
0,784000	0,693970	4,999847
0,785000	0,621033	4,999847
0,786000	0,706940	4,999847
0,787000	0,612335	4,999847
0,788000	0,713348	3,961182
0,789000	0,627136	3,106842
0,790000	0,695038	4,973297
0,791000	0,647125	4,007416
0,792000	0,681305	4,999847
0,793000	0,668793	4,999847
0,794000	0,668945	4,999847
0,795000	0,686493	4,999847
0,796000	0,656128	4,999847
0,797000	0,701752	4,515839
0,798000	0,642395	3,599243
0,799000	0,715027	3,744507
0,800000	0,630951	3,543701
0,801000	0,728455	4,999847
0,802000	0,623932	4,999847
0,803000	0,724792	4,999847
0,804000	0,646057	4,999847
0,805000	0,707245	4,999847
0,806000	0,667572	4,999847
0,807000	0,690460	4,999847
0,808000	0,686798	4,299011
0,809000	0,675812	3,445892
0,810000	0,704346	2,862701
0,811000	0,662537	4,257202
0,812000	0,721283	4,999847
0,813000	0,651398	4,999847
0,814000	0,736237	4,999847
0,815000	0,641632	4,999847
0,816000	0,751343	4,999847
0,817000	0,645599	4,999847
0,818000	0,739288	4,089203
0,819000	0,669098	3,104401
0,820000	0,720367	4,708252
0,821000	0,690002	4,999847
0,822000	0,703583	4,999847
0,823000	0,709991	4,999847
0,824000	0,690002	4,999847
0,825000	0,728607	4,999847
0,826000	0,676727	4,999847
0,827000	0,746155	4,841003
0,828000	0,665588	4,866028
0,829000	0,761871	3,139343
0,830000	0,655060	4,999847
0,831000	0,773773	4,263306
0,832000	0,670166	4,999847
0,833000	0,753174	4,999847
0,834000	0,693665	4,999847
0,835000	0,732269	4,999847
0,836000	0,715027	4,999847
0,837000	0,690155	4,999847
0,838000	0,706940	4,176483
0,839000	0,676117	3,574829
0,840000	0,724335	4,384308
0,841000	0,664368	4,999847
0,842000	0,740662	4,999847
0,843000	0,653687	4,999847
0,844000	0,755615	4,999847
0,845000	0,644836	4,999847
0,846000	0,756683	4,999847
0,847000	0,669403	4,999847
0,848000	0,737305	4,830322
0,849000	0,691528	3,122406
0,850000	0,719604	4,203339
0,851000	0,712280	4,004517
0,852000	0,704498	4,999847
0,853000	0,730743	4,999847
0,854000	0,691833	4,999847
0,855000	0,748749	4,999847
0,856000	0,679626	4,999847
0,857000	0,763397	4,999847
0,858000	0,668488	4,222565
0,859000	0,777893	2,284393
0,860000	0,670013	4,999847
0,861000	0,770264	4,999847
0,862000	0,694733	4,999847
0,863000	0,751801	4,999847
0,864000	0,717010	4,999847
0,865000	0,735016	4,999847
0,866000	0,737457	4,999847
0,867000	0,721283	4,999847
0,868000	0,756531	3,622131
0,869000	0,708618	2,957764
0,870000	0,773163	4,635315
0,871000	0,697174	3,670502
0,872000	0,789185	4,511719
0,873000	0,686493	4,999847
0,874000	0,802765	4,999847
0,875000	0,698547	4,999847
0,876000	0,788422	4,999847
0,877000	0,695648	4,922485
0,878000	0,748444	4,159546
0,879000	0,734711	3,223114
0,880000	0,748749	3,938599
0,881000	0,762177	4,999847
0,882000	0,738525	4,999847
0,883000	0,781708	4,999847
0,884000	0,726471	4,999847
0,885000	0,798798	4,999847
0,886000	0,715790	4,999847
0,887000	0,814972	4,999847
0,888000	0,705566	4,285583
0,889000	0,826874	3,433533
0,890000	0,729218	3,495789
0,891000	0,808563	3,899384
0,892000	0,752106	4,835815
0,893000	0,789642	4,999847
0,894000	0,771790	4,999847
0,895000	0,773773	4,999847
0,896000	0,791016	4,999847
0,897000	0,759583	4,999847
0,898000	0,809174	3,982239
0,899000	0,745850	3,537445
0,900000	0,826111	4,687500
0,901000	0,734253	4,938202
0,902000	0,842285	4,999847
0,903000	0,733185	4,999847
0,904000	0,844116	4,999847
0,905000	0,730896	4,999847
0,906000	0,736084	4,999847
0,907000	0,738220	4,916992
0,908000	0,823975	4,029083
0,909000	0,764313	3,435669
0,910000	0,836487	4,999847
0,911000	0,749359	3,517151
0,912000	0,851593	4,999847
0,913000	0,739594	4,999847
0,914000	0,860291	4,999847
0,915000	0,763245	4,999847
0,916000	0,842743	4,999847
0,917000	0,785828	4,780121
0,918000	0,824280	3,498993
0,919000	0,806122	2,978973
0,920000	0,807495	3,453369
0,921000	0,825653	4,188843
0,922000	0,792084	4,999847
0,923000	0,843506	4,999847
0,924000	0,773773	4,999847
0,925000	0,858459	4,999847
0,926000	0,761566	4,999847
0,927000	0,872040	4,999847
0,928000	0,763245	4,027405
0,929000	0,869904	3,498688
0,930000	0,784302	4,999847
0,931000	0,846710	3,713837
0,932000	0,805969	4,999847
0,933000	0,828247	4,999847
0,934000	0,826111	4,999847
0,935000	0,811005	4,999847
0,936000	0,844879	4,999847
0,937000	0,795746	4,727173
0,938000	0,861969	3,059235
0,939000	0,781097	3,885651
0,940000	0,874634	3,929138
0,941000	0,767975	3,968811
0,942000	0,881195	4,999847
0,943000	0,780182	4,999847
0,944000	0,867462	4,999847
0,945000	0,802155	4,999847
0,946000	0,846558	4,999847
0,947000	0,823669	4,999847
0,948000	0,829620	4,565430
0,949000	0,843964	3,414612
0,950000	0,813446	4,999847
0,951000	0,720673	2,934875
0,952000	0,677643	4,999847
0,953000	0,658112	4,999847
0,954000	0,648956	4,999847
0,955000	0,644836	4,999847
0,956000	0,642700	4,999847
0,957000	0,641937	4,999847
0,958000	0,641479	3,680115
0,959000	0,640717	3,331146
0,960000	0,640411	4,310150
0,961000	0,640564	4,999847
0,962000	0,640564	4,999847
0,963000	0,640564	4,999847
0,964000	0,640259	4,999847
0,965000	0,640717	4,999847
0,966000	0,640411	4,999847
0,967000	0,640411	4,999847
0,968000	0,640106	3,734589
0,969000	0,640259	3,423157
0,970000	0,640717	4,999847
0,971000	0,640259	3,657684
0,972000	0,573273	4,999847
0,973000	0,538177	4,999847
0,974000	0,522766	4,999847
0,975000	0,518494	4,999847
0,976000	0,511169	4,999847
0,977000	0,511475	4,523010
0,978000	0,505829	4,517822
0,979000	0,485382	3,531189
0,980000	0,490875	4,053040
0,981000	0,499420	4,999847
0,982000	0,502625	4,999847
0,983000	0,505219	4,999847
0,984000	0,506287	4,999847
0,985000	0,505829	4,999847
0,986000	0,508270	4,999847
0,987000	0,506287	4,842682
0,988000	0,508118	4,267273
0,989000	0,503082	3,973236
0,990000	0,505371	4,999847
0,991000	0,504913	4,133301
0,992000	0,510712	4,999847
0,993000	0,509796	4,999847
0,994000	0,511169	4,999847
0,995000	0,508575	4,999847
0,996000	0,508881	4,999847
0,997000	0,511017	4,999847
0,998000	0,511017	4,096069
0,999000	0,515594	4,202423

