LabVIEW Measurement	
Writer_Version	2
Reader_Version	2
Separator	Tab
Decimal_Separator	,
Multi_Headings	Yes
X_Columns	One
Time_Pref	Absolute
Operator	d.nicolai
Date	2023/11/09
Time	16:04:05,6565121999996605588
***End_of_Header***	
	
Channels	2		
Samples	1000	1000	
Date	2023/11/09	2023/11/09	
Time	16:04:34,4125138999997868997	16:04:34,4125138999997868997	
Y_Unit_Label	Volts	Volts	
X_Dimension	Time	Time	
X0	0,0000000000000000E+0	0,0000000000000000E+0	
Delta_X	0,001000	0,001000	
***End_of_Header***			
X_Value	powebox	triggerbox	Comment
0,000000	0,877075	0,994110
0,001000	0,893707	4,055023
0,002000	0,857391	4,999847
0,003000	0,910034	4,999847
0,004000	0,840912	4,999847
0,005000	0,922852	4,999847
0,006000	0,825500	4,999847
0,007000	0,929413	4,999847
0,008000	0,824585	4,999847
0,009000	0,929871	3,561707
0,010000	0,848541	2,858124
0,011000	0,921326	4,272461
0,012000	0,872345	3,915558
0,013000	0,894165	4,999847
0,014000	0,776062	4,999847
0,015000	0,720062	4,999847
0,016000	0,694275	4,999847
0,017000	0,683136	4,999847
0,018000	0,676880	4,999847
0,019000	0,674286	2,864990
0,020000	0,673065	3,708038
0,021000	0,672302	3,569946
0,022000	0,671997	4,189148
0,023000	0,671539	4,999847
0,024000	0,671387	4,999847
0,025000	0,671692	4,999847
0,026000	0,671082	4,999847
0,027000	0,671234	4,999847
0,028000	0,671082	4,999847
0,029000	0,671234	3,594360
0,030000	0,671082	2,277679
0,031000	0,670929	3,463593
0,032000	0,671387	3,622894
0,033000	0,671539	4,999847
0,034000	0,671387	4,999847
0,035000	0,672150	4,999847
0,036000	0,629578	4,999847
0,037000	0,592499	4,999847
0,038000	0,574036	4,580841
0,039000	0,566559	3,907471
0,040000	0,565643	4,048004
0,041000	0,564270	4,007111
0,042000	0,563507	3,866882
0,043000	0,563507	4,999847
0,044000	0,558624	4,999847
0,045000	0,560150	4,999847
0,046000	0,558929	4,999847
0,047000	0,558319	4,999847
0,048000	0,555420	4,938354
0,049000	0,556641	3,275604
0,050000	0,556183	1,234131
0,051000	0,557098	3,892212
0,052000	0,555725	4,011993
0,053000	0,554199	4,999847
0,054000	0,552979	4,999847
0,055000	0,553131	4,999847
0,056000	0,552521	4,999847
0,057000	0,547333	4,999847
0,058000	0,552673	4,746552
0,059000	0,551605	2,641449
0,060000	0,557098	3,818665
0,061000	0,563202	3,341980
0,062000	0,567017	4,751740
0,063000	0,566559	4,999847
0,064000	0,569916	4,999847
0,065000	0,566711	4,999847
0,066000	0,567169	4,999847
0,067000	0,572052	4,999847
0,068000	0,566406	4,482269
0,069000	0,565338	3,646698
0,070000	0,560913	3,178101
0,071000	0,561523	3,830414
0,072000	0,555878	3,916321
0,073000	0,550232	4,999847
0,074000	0,561066	4,999847
0,075000	0,568848	4,999847
0,076000	0,568542	4,999847
0,077000	0,574341	4,999847
0,078000	0,576019	4,147339
0,079000	0,568848	2,671509
0,080000	0,570526	4,631195
0,081000	0,571136	4,012604
0,082000	0,572205	4,999847
0,083000	0,566864	4,999847
0,084000	0,559692	4,999847
0,085000	0,547943	4,999847
0,086000	0,553741	4,999847
0,087000	0,552673	4,999847
0,088000	0,553131	4,589386
0,089000	0,553436	4,591980
0,090000	0,564117	3,546143
0,091000	0,565033	3,222198
0,092000	0,557556	4,386902
0,093000	0,552521	4,999847
0,094000	0,556488	4,999847
0,095000	0,566254	4,999847
0,096000	0,571594	4,999847
0,097000	0,573883	4,999847
0,098000	0,570526	4,405975
0,099000	0,571747	3,891602
0,100000	0,569153	3,615417
0,101000	0,578003	3,215485
0,102000	0,572510	4,999847
0,103000	0,577850	4,999847
0,104000	0,578766	4,999847
0,105000	0,583191	4,999847
0,106000	0,580139	4,999847
0,107000	0,583496	4,999847
0,108000	0,580597	4,999847
0,109000	0,578918	3,945007
0,110000	0,582581	3,498535
0,111000	0,582886	4,111328
0,112000	0,580292	4,350739
0,113000	0,577850	4,999847
0,114000	0,578766	4,999847
0,115000	0,583038	4,999847
0,116000	0,605621	4,999847
0,117000	0,605011	4,999847
0,118000	0,605774	4,999847
0,119000	0,602264	4,221954
0,120000	0,599976	1,392212
0,121000	0,596008	3,787384
0,122000	0,589905	4,937134
0,123000	0,588531	4,999847
0,124000	0,579987	4,999847
0,125000	0,588989	4,999847
0,126000	0,595703	4,999847
0,127000	0,599213	4,999847
0,128000	0,598450	4,492340
0,129000	0,594482	4,119568
0,130000	0,598907	2,039948
0,131000	0,596466	4,244995
0,132000	0,601349	3,856354
0,133000	0,604095	4,770508
0,134000	0,604248	4,999847
0,135000	0,603180	4,999847
0,136000	0,601044	4,999847
0,137000	0,600586	4,999847
0,138000	0,605011	4,828491
0,139000	0,607758	4,021149
0,140000	0,606689	3,598938
0,141000	0,609131	4,869385
0,142000	0,598145	4,999847
0,143000	0,603027	4,999847
0,144000	0,586395	4,999847
0,145000	0,601196	4,999847
0,146000	0,591278	4,999847
0,147000	0,602875	4,999847
0,148000	0,590210	4,999847
0,149000	0,600739	4,467926
0,150000	0,598602	3,449860
0,151000	0,606537	4,383087
0,152000	0,610809	4,710541
0,153000	0,611877	4,999847
0,154000	0,617218	4,999847
0,155000	0,611725	4,999847
0,156000	0,619507	4,999847
0,157000	0,610504	4,999847
0,158000	0,622406	4,564056
0,159000	0,606232	3,767242
0,160000	0,623932	3,748169
0,161000	0,608368	4,262085
0,162000	0,620575	4,963074
0,163000	0,610504	4,999847
0,164000	0,619507	4,999847
0,165000	0,620422	4,999847
0,166000	0,621033	4,999847
0,167000	0,619965	4,999847
0,168000	0,614929	4,999847
0,169000	0,621033	4,867554
0,170000	0,614319	2,556152
0,171000	0,631409	4,727783
0,172000	0,614777	3,951874
0,173000	0,636444	4,999847
0,174000	0,614166	4,999847
0,175000	0,593414	4,999847
0,176000	0,561676	4,999847
0,177000	0,606537	4,999847
0,178000	0,605469	4,304810
0,179000	0,620117	3,574829
0,180000	0,621643	3,623657
0,181000	0,621033	4,503784
0,182000	0,631409	4,999847
0,183000	0,627594	4,999847
0,184000	0,642700	4,999847
0,185000	0,627289	4,999847
0,186000	0,649261	4,999847
0,187000	0,624390	4,999847
0,188000	0,653381	4,605408
0,189000	0,624390	4,529572
0,190000	0,653534	2,281799
0,191000	0,634155	4,451752
0,192000	0,650940	3,338165
0,193000	0,639954	4,999847
0,194000	0,643463	4,999847
0,195000	0,644989	4,999847
0,196000	0,639496	4,999847
0,197000	0,650024	4,999847
0,198000	0,628967	4,999847
0,199000	0,650177	3,860931
0,200000	0,626221	2,677002
0,201000	0,661621	3,806763
0,202000	0,634613	4,999847
0,203000	0,672302	4,999847
0,204000	0,636292	4,999847
0,205000	0,664520	4,999847
0,206000	0,639496	4,999847
0,207000	0,658875	4,999847
0,208000	0,648804	4,741669
0,209000	0,652924	4,989471
0,210000	0,656281	2,677155
0,211000	0,646057	3,461761
0,212000	0,664673	4,402618
0,213000	0,641785	4,999847
0,214000	0,672455	4,999847
0,215000	0,626221	4,999847
0,216000	0,674438	4,999847
0,217000	0,626526	4,999847
0,218000	0,679626	4,802399
0,219000	0,635681	3,586731
0,220000	0,674744	3,802795
0,221000	0,654907	4,256287
0,222000	0,672455	4,770203
0,223000	0,668335	4,999847
0,224000	0,669556	4,999847
0,225000	0,679474	4,999847
0,226000	0,665131	4,999847
0,227000	0,687866	4,999847
0,228000	0,660858	4,999847
0,229000	0,695801	3,605194
0,230000	0,655365	3,598938
0,231000	0,703278	3,082733
0,232000	0,652771	2,919769
0,233000	0,702972	4,999847
0,234000	0,664520	4,999847
0,235000	0,694733	4,999847
0,236000	0,676422	4,999847
0,237000	0,686951	4,999847
0,238000	0,686340	4,834290
0,239000	0,681152	3,725433
0,240000	0,696411	2,737579
0,241000	0,673218	4,439850
0,242000	0,703583	4,999847
0,243000	0,669861	4,999847
0,244000	0,715027	4,999847
0,245000	0,662842	4,999847
0,246000	0,722198	4,999847
0,247000	0,658569	4,999847
0,248000	0,707703	4,999847
0,249000	0,669708	3,196411
0,250000	0,700531	3,140411
0,251000	0,682373	4,999847
0,252000	0,685272	4,288177
0,253000	0,682831	4,999847
0,254000	0,668335	4,999847
0,255000	0,697479	4,999847
0,256000	0,665283	4,999847
0,257000	0,711365	4,999847
0,258000	0,660248	4,999847
0,259000	0,723114	3,509064
0,260000	0,654602	3,338470
0,261000	0,731049	3,635406
0,262000	0,666962	4,999847
0,263000	0,722504	4,999847
0,264000	0,689850	4,999847
0,265000	0,716095	4,999847
0,266000	0,705872	4,999847
0,267000	0,700378	4,999847
0,268000	0,710144	4,999847
0,269000	0,688171	3,399658
0,270000	0,722809	2,543640
0,271000	0,682220	4,248199
0,272000	0,737457	3,190765
0,273000	0,679932	4,999847
0,274000	0,749664	4,999847
0,275000	0,674591	4,999847
0,276000	0,749969	4,999847
0,277000	0,652313	4,999847
0,278000	0,672455	4,999847
0,279000	0,677032	3,598480
0,280000	0,712280	3,915558
0,281000	0,714874	4,542999
0,282000	0,713959	4,999847
0,283000	0,652466	4,999847
0,284000	0,621033	4,999847
0,285000	0,661469	4,999847
0,286000	0,689697	4,999847
0,287000	0,706482	4,999847
0,288000	0,696564	4,999847
0,289000	0,735016	3,899841
0,290000	0,699005	4,237518
0,291000	0,753174	4,832153
0,292000	0,689240	2,997589
0,293000	0,763550	4,999847
0,294000	0,676880	4,999847
0,295000	0,770721	4,999847
0,296000	0,687866	4,999847
0,297000	0,751801	4,999847
0,298000	0,708160	4,580231
0,299000	0,735474	3,058167
0,300000	0,722198	3,815765
0,301000	0,729218	3,372345
0,302000	0,747528	4,999847
0,303000	0,721741	4,999847
0,304000	0,763550	4,999847
0,305000	0,702515	4,999847
0,306000	0,768280	4,999847
0,307000	0,687561	4,999847
0,308000	0,779724	4,778900
0,309000	0,682220	4,358063
0,310000	0,784454	2,740936
0,311000	0,715027	4,721832
0,312000	0,773773	3,760834
0,313000	0,741577	4,999847
0,314000	0,767212	4,999847
0,315000	0,762177	4,999847
0,316000	0,755310	4,999847
0,317000	0,776672	4,999847
0,318000	0,742950	4,999847
0,319000	0,788879	3,554230
0,320000	0,731201	4,999847
0,321000	0,802765	3,229370
0,322000	0,722046	4,999847
0,323000	0,816345	4,999847
0,324000	0,726318	4,999847
0,325000	0,814819	4,999847
0,326000	0,747681	4,999847
0,327000	0,794678	4,999847
0,328000	0,758667	4,999847
0,329000	0,778809	3,507843
0,330000	0,779419	4,999847
0,331000	0,767822	2,720032
0,332000	0,761261	3,589630
0,333000	0,712738	4,999847
0,334000	0,770721	4,999847
0,335000	0,689697	4,999847
0,336000	0,777893	4,999847
0,337000	0,676270	4,999847
0,338000	0,789337	4,999847
0,339000	0,692139	3,179932
0,340000	0,771790	3,079071
0,341000	0,710449	4,700470
0,342000	0,751648	4,968109
0,343000	0,731049	4,999847
0,344000	0,735474	4,999847
0,345000	0,748901	4,999847
0,346000	0,714874	4,999847
0,347000	0,762482	4,999847
0,348000	0,698700	4,999847
0,349000	0,777740	4,425354
0,350000	0,689697	2,783813
0,351000	0,794067	4,479218
0,352000	0,675659	3,915710
0,353000	0,791016	4,999847
0,354000	0,701752	4,999847
0,355000	0,774536	4,999847
0,356000	0,726624	4,999847
0,357000	0,759583	4,999847
0,358000	0,751343	4,999847
0,359000	0,745544	3,650665
0,360000	0,772858	3,990021
0,361000	0,734100	3,584137
0,362000	0,791016	4,999847
0,363000	0,720367	4,999847
0,364000	0,806885	4,999847
0,365000	0,709076	4,999847
0,366000	0,821838	4,999847
0,367000	0,716248	4,999847
0,368000	0,818329	4,412689
0,369000	0,735626	4,309540
0,370000	0,802307	4,768524
0,371000	0,760193	3,812866
0,372000	0,776978	3,400116
0,373000	0,778046	4,999847
0,374000	0,762939	4,999847
0,375000	0,797729	4,999847
0,376000	0,752411	4,999847
0,377000	0,817108	4,999847
0,378000	0,740814	4,692993
0,379000	0,832214	3,687592
0,380000	0,698547	4,367218
0,381000	0,834045	3,808746
0,382000	0,735626	4,999847
0,383000	0,837250	4,999847
0,384000	0,765228	4,999847
0,385000	0,820923	4,999847
0,386000	0,789032	4,999847
0,387000	0,811462	4,999847
0,388000	0,812836	4,999847
0,389000	0,797272	4,725037
0,390000	0,832672	2,952728
0,391000	0,785828	3,591461
0,392000	0,851746	3,816986
0,393000	0,771027	4,999847
0,394000	0,868225	4,999847
0,395000	0,761261	4,999847
0,396000	0,884705	4,999847
0,397000	0,786133	4,999847
0,398000	0,884552	4,622192
0,399000	0,809021	4,160919
0,400000	0,865173	3,733063
0,401000	0,829620	4,232330
0,402000	0,848541	4,422760
0,403000	0,850220	4,999847
0,404000	0,829163	4,999847
0,405000	0,867615	4,999847
0,406000	0,810242	4,999847
0,407000	0,883484	4,999847
0,408000	0,779724	4,601288
0,409000	0,880585	4,534454
0,410000	0,775909	2,444916
0,411000	0,891418	3,998260
0,412000	0,800171	4,312744
0,413000	0,876770	4,999847
0,414000	0,816956	4,999847
0,415000	0,855865	4,999847
0,416000	0,836945	4,999847
0,417000	0,837860	4,999847
0,418000	0,855408	4,337921
0,419000	0,815887	3,687286
0,420000	0,870361	2,907410
0,421000	0,804443	3,288727
0,422000	0,887299	4,999847
0,423000	0,791016	4,999847
0,424000	0,898590	4,999847
0,425000	0,801239	4,999847
0,426000	0,901489	4,999847
0,427000	0,820618	4,999847
0,428000	0,883331	4,999847
0,429000	0,838928	4,456024
0,430000	0,861969	3,880920
0,431000	0,858154	4,242859
0,432000	0,842285	3,850403
0,433000	0,875244	4,943237
0,434000	0,826874	4,999847
0,435000	0,891876	4,999847
0,436000	0,810394	4,999847
0,437000	0,901031	4,999847
0,438000	0,794525	4,557800
0,439000	0,905457	3,742065
0,440000	0,816040	3,132172
0,441000	0,903168	4,465179
0,442000	0,838928	4,999847
0,443000	0,886688	4,999847
0,444000	0,859985	4,999847
0,445000	0,833588	4,999847
0,446000	0,858917	4,999847
0,447000	0,832520	4,999847
0,448000	0,886230	4,999847
0,449000	0,820618	4,883423
0,450000	0,899658	2,540741
0,451000	0,803528	4,999847
0,452000	0,722961	3,854218
0,453000	0,686951	4,999847
0,454000	0,670013	4,999847
0,455000	0,661926	4,999847
0,456000	0,658722	4,999847
0,457000	0,656891	4,999847
0,458000	0,656128	4,999847
0,459000	0,655212	3,734436
0,460000	0,655518	3,370056
0,461000	0,655212	4,999847
0,462000	0,655060	4,672089
0,463000	0,655365	4,999847
0,464000	0,654755	4,999847
0,465000	0,654755	4,999847
0,466000	0,654297	4,999847
0,467000	0,654449	4,999847
0,468000	0,654449	4,999847
0,469000	0,654602	3,922424
0,470000	0,654297	2,536926
0,471000	0,654144	4,424744
0,472000	0,653839	3,986816
0,473000	0,623169	4,969482
0,474000	0,592499	4,999847
0,475000	0,577850	4,999847
0,476000	0,570221	4,999847
0,477000	0,561523	4,999847
0,478000	0,548553	4,973755
0,479000	0,551300	3,590851
0,480000	0,556946	4,125061
0,481000	0,555878	3,819580
0,482000	0,526123	4,999847
0,483000	0,524597	4,999847
0,484000	0,538177	4,999847
0,485000	0,534668	4,999847
0,486000	0,537262	4,999847
0,487000	0,543671	4,999847
0,488000	0,548096	4,999847
0,489000	0,552673	3,880463
0,490000	0,549622	3,855896
0,491000	0,540771	4,999847
0,492000	0,541229	2,801056
0,493000	0,547943	4,999847
0,494000	0,540619	4,999847
0,495000	0,535889	4,999847
0,496000	0,529022	4,999847
0,497000	0,528259	4,999847
0,498000	0,516205	4,999847
0,499000	0,518494	4,316711
0,500000	0,501099	3,447876
0,501000	0,488129	3,365936
0,502000	0,486450	4,413910
0,503000	0,482941	4,999847
0,504000	0,492706	4,999847
0,505000	0,497437	4,999847
0,506000	0,493927	4,999847
0,507000	0,490265	4,999847
0,508000	0,493622	4,999847
0,509000	0,528107	3,802643
0,510000	0,554352	3,474121
0,511000	0,560760	4,999847
0,512000	0,568390	2,853699
0,513000	0,570068	4,999847
0,514000	0,569153	4,999847
0,515000	0,568085	4,999847
0,516000	0,570831	4,999847
0,517000	0,571136	4,999847
0,518000	0,570984	4,999847
0,519000	0,567322	3,023224
0,520000	0,565491	3,658752
0,521000	0,564117	4,999847
0,522000	0,561676	4,999847
0,523000	0,566254	4,999847
0,524000	0,559387	4,999847
0,525000	0,561371	4,999847
0,526000	0,558014	4,999847
0,527000	0,557709	4,999847
0,528000	0,556793	4,999847
0,529000	0,551910	3,981018
0,530000	0,545807	2,524109
0,531000	0,544128	4,239197
0,532000	0,544281	2,735748
0,533000	0,540314	4,999847
0,534000	0,544434	4,999847
0,535000	0,548401	4,999847
0,536000	0,552368	4,999847
0,537000	0,543365	4,999847
0,538000	0,540924	4,999847
0,539000	0,538025	3,797455
0,540000	0,538177	3,502960
0,541000	0,537415	3,446655
0,542000	0,543823	4,257507
0,543000	0,544434	4,999847
0,544000	0,545349	4,999847
0,545000	0,544281	4,999847
0,546000	0,542450	4,999847
0,547000	0,544128	4,999847
0,548000	0,543518	4,999847
0,549000	0,547333	4,270020
0,550000	0,546112	3,826141
0,551000	0,550232	4,198151
0,552000	0,547180	3,088074
0,553000	0,552368	4,999847
0,554000	0,552368	4,999847
0,555000	0,554504	4,999847
0,556000	0,555115	4,999847
0,557000	0,554352	4,999847
0,558000	0,547638	4,999847
0,559000	0,551453	3,258209
0,560000	0,553894	4,243011
0,561000	0,549469	3,361816
0,562000	0,546112	4,999847
0,563000	0,548553	4,999847
0,564000	0,545349	4,999847
0,565000	0,548859	4,999847
0,566000	0,551300	4,999847
0,567000	0,555573	4,999847
0,568000	0,557861	4,999847
0,569000	0,559540	4,284515
0,570000	0,547180	3,458099
0,571000	0,551758	4,376984
0,572000	0,552063	4,086304
0,573000	0,552673	4,999847
0,574000	0,552368	4,999847
0,575000	0,552521	4,999847
0,576000	0,555267	4,999847
0,577000	0,555573	4,999847
0,578000	0,560760	4,999847
0,579000	0,552979	4,026642
0,580000	0,560913	3,693695
0,581000	0,554352	4,032288
0,582000	0,565491	4,566650
0,583000	0,560303	4,999847
0,584000	0,553741	4,999847
0,585000	0,533600	4,999847
0,586000	0,553284	4,999847
0,587000	0,561218	4,999847
0,588000	0,568237	4,576874
0,589000	0,571136	4,630127
0,590000	0,571594	3,459167
0,591000	0,576172	4,015045
0,592000	0,570679	3,136292
0,593000	0,577545	4,999847
0,594000	0,570526	4,999847
0,595000	0,580902	4,999847
0,596000	0,561066	4,999847
0,597000	0,579376	4,999847
0,598000	0,569305	4,999847
0,599000	0,581512	4,138641
0,600000	0,577698	3,373413
0,601000	0,584564	4,368439
0,602000	0,583344	4,528961
0,603000	0,583649	4,999847
0,604000	0,585022	4,999847
0,605000	0,581970	4,999847
0,606000	0,589600	4,999847
0,607000	0,581360	4,999847
0,608000	0,593414	4,999847
0,609000	0,581818	3,712311
0,610000	0,598755	4,455109
0,611000	0,579376	4,214630
0,612000	0,598755	4,475403
0,613000	0,585632	4,999847
0,614000	0,598145	4,999847
0,615000	0,591736	4,999847
0,616000	0,598755	4,999847
0,617000	0,599976	4,999847
0,618000	0,598907	4,999847
0,619000	0,604401	4,366608
0,620000	0,595703	3,855438
0,621000	0,607452	3,328400
0,622000	0,593719	4,911346
0,623000	0,611572	4,999847
0,624000	0,592499	4,999847
0,625000	0,615387	4,999847
0,626000	0,585022	4,999847
0,627000	0,610199	4,999847
0,628000	0,595703	4,999847
0,629000	0,610504	4,180145
0,630000	0,606232	2,913818
0,631000	0,609894	4,999847
0,632000	0,612183	3,679810
0,633000	0,608063	4,999847
0,634000	0,617676	4,999847
0,635000	0,607605	4,999847
0,636000	0,623932	4,999847
0,637000	0,600281	4,999847
0,638000	0,626221	4,648895
0,639000	0,599518	3,595886
0,640000	0,630798	3,774414
0,641000	0,598602	3,311920
0,642000	0,625000	4,999847
0,643000	0,611115	4,999847
0,644000	0,622711	4,999847
0,645000	0,616913	4,999847
0,646000	0,617676	4,999847
0,647000	0,623779	4,999847
0,648000	0,614624	4,542694
0,649000	0,630798	4,999847
0,650000	0,610199	3,470306
0,651000	0,636597	4,703979
0,652000	0,610809	3,244781
0,653000	0,644379	4,999847
0,654000	0,611115	4,999847
0,655000	0,648041	4,999847
0,656000	0,621490	4,999847
0,657000	0,643616	4,999847
0,658000	0,623474	4,306488
0,659000	0,640717	3,593750
0,660000	0,648956	3,380737
0,661000	0,647888	2,833252
0,662000	0,657959	4,999847
0,663000	0,644836	4,999847
0,664000	0,665894	4,999847
0,665000	0,638428	4,999847
0,666000	0,670319	4,999847
0,667000	0,631561	4,999847
0,668000	0,675354	4,999847
0,669000	0,625305	4,999847
0,670000	0,669250	3,763275
0,671000	0,639038	4,217682
0,672000	0,663757	3,142090
0,673000	0,650330	4,999847
0,674000	0,657806	4,999847
0,675000	0,658417	4,999847
0,676000	0,650330	4,999847
0,677000	0,666809	4,999847
0,678000	0,642548	4,354095
0,679000	0,672150	4,334564
0,680000	0,635071	4,339905
0,681000	0,680084	3,665924
0,682000	0,627441	4,999847
0,683000	0,685730	4,999847
0,684000	0,634308	4,999847
0,685000	0,679169	4,999847
0,686000	0,649109	4,999847
0,687000	0,651703	4,999847
0,688000	0,650482	4,591675
0,689000	0,646210	4,374542
0,690000	0,654907	3,397827
0,691000	0,637817	4,967346
0,692000	0,666199	3,865204
0,693000	0,631256	4,999847
0,694000	0,677643	4,999847
0,695000	0,630951	4,999847
0,696000	0,690918	4,999847
0,697000	0,626068	4,999847
0,698000	0,693207	4,058228
0,699000	0,634308	4,050446
0,700000	0,679779	3,359680
0,701000	0,649109	3,794861
0,702000	0,670776	4,999847
0,703000	0,665894	4,999847
0,704000	0,664978	4,999847
0,705000	0,679626	4,999847
0,706000	0,656586	4,999847
0,707000	0,690002	4,999847
0,708000	0,648346	4,999847
0,709000	0,700073	4,999847
0,710000	0,645447	3,480988
0,711000	0,711823	4,422302
0,712000	0,632782	3,714905
0,713000	0,700531	4,978638
0,714000	0,646362	4,999847
0,715000	0,688629	4,999847
0,716000	0,664673	4,999847
0,717000	0,680542	4,999847
0,718000	0,680695	4,999847
0,719000	0,672150	4,155121
0,720000	0,612335	3,090973
0,721000	0,584717	3,358612
0,722000	0,574646	4,999847
0,723000	0,678711	4,999847
0,724000	0,627899	4,999847
0,725000	0,715942	4,999847
0,726000	0,645294	4,999847
0,727000	0,709686	4,999847
0,728000	0,656281	4,999847
0,729000	0,690765	4,411469
0,730000	0,670319	3,439484
0,731000	0,676117	3,851776
0,732000	0,688629	3,916779
0,733000	0,670166	4,999847
0,734000	0,702362	4,999847
0,735000	0,659180	4,999847
0,736000	0,714417	4,999847
0,737000	0,644531	4,999847
0,738000	0,724335	4,408112
0,739000	0,637360	4,285889
0,740000	0,731201	3,463287
0,741000	0,652161	4,505920
0,742000	0,713043	4,172516
0,743000	0,667725	4,999847
0,744000	0,699310	4,999847
0,745000	0,688171	4,999847
0,746000	0,686951	4,999847
0,747000	0,704498	4,999847
0,748000	0,672607	4,999847
0,749000	0,717163	4,606934
0,750000	0,660706	3,745117
0,751000	0,730896	4,999847
0,752000	0,647888	4,107971
0,753000	0,741272	4,999847
0,754000	0,646210	4,999847
0,755000	0,740967	4,999847
0,756000	0,665283	4,999847
0,757000	0,720673	4,999847
0,758000	0,682983	4,944458
0,759000	0,703278	3,401642
0,760000	0,700073	3,379822
0,761000	0,684662	3,709106
0,762000	0,714417	4,047394
0,763000	0,672455	4,999847
0,764000	0,733337	4,999847
0,765000	0,668182	4,999847
0,766000	0,749969	4,999847
0,767000	0,661469	4,999847
0,768000	0,764618	4,999847
0,769000	0,668945	3,552094
0,770000	0,756531	3,859100
0,771000	0,689392	3,549347
0,772000	0,737152	3,746185
0,773000	0,708771	4,999847
0,774000	0,720215	4,999847
0,775000	0,725403	4,999847
0,776000	0,705414	4,999847
0,777000	0,742950	4,999847
0,778000	0,691528	4,999847
0,779000	0,757294	3,665924
0,780000	0,680237	2,965851
0,781000	0,771637	4,763336
0,782000	0,667725	4,348145
0,783000	0,783539	4,999847
0,784000	0,686493	4,999847
0,785000	0,768890	4,999847
0,786000	0,708771	4,999847
0,787000	0,750885	4,999847
0,788000	0,729218	4,999847
0,789000	0,722198	3,732452
0,790000	0,731506	4,045105
0,791000	0,714569	3,416595
0,792000	0,763245	3,238068
0,793000	0,706024	4,999847
0,794000	0,780945	4,999847
0,795000	0,693970	4,999847
0,796000	0,795593	4,999847
0,797000	0,688019	4,999847
0,798000	0,804901	4,999847
0,799000	0,711365	3,389740
0,800000	0,782471	3,639679
0,801000	0,731812	4,212341
0,802000	0,760803	4,913330
0,803000	0,750427	4,999847
0,804000	0,745697	4,999847
0,805000	0,770111	4,999847
0,806000	0,733948	4,999847
0,807000	0,788879	4,999847
0,808000	0,721741	4,999847
0,809000	0,804291	4,288483
0,810000	0,708771	3,203888
0,811000	0,818176	4,545288
0,812000	0,697784	3,795624
0,813000	0,793457	4,999847
0,814000	0,723724	4,999847
0,815000	0,779724	4,999847
0,816000	0,748749	4,999847
0,817000	0,767975	4,999847
0,818000	0,772247	4,941864
0,819000	0,749664	3,368683
0,820000	0,787201	3,609619
0,821000	0,740509	4,667511
0,822000	0,808563	4,999847
0,823000	0,730896	4,999847
0,824000	0,825653	4,999847
0,825000	0,721130	4,999847
0,826000	0,842133	4,999847
0,827000	0,736847	4,999847
0,828000	0,827942	4,975586
0,829000	0,760193	3,719025
0,830000	0,809021	3,126373
0,831000	0,781708	4,640961
0,832000	0,791779	4,205017
0,833000	0,801392	4,999847
0,834000	0,778656	4,999847
0,835000	0,821228	4,999847
0,836000	0,763550	4,999847
0,837000	0,837097	4,999847
0,838000	0,749969	4,999847
0,839000	0,853424	2,547607
0,840000	0,737305	4,428406
0,841000	0,861359	2,657623
0,842000	0,763092	4,999847
0,843000	0,845490	4,999847
0,844000	0,787506	4,999847
0,845000	0,830383	4,999847
0,846000	0,810089	4,999847
0,847000	0,813141	4,999847
0,848000	0,829010	4,999847
0,849000	0,795746	4,364777
0,850000	0,846710	3,265381
0,851000	0,787048	4,420624
0,852000	0,867310	4,128571
0,853000	0,774994	4,999847
0,854000	0,882874	4,999847
0,855000	0,773773	4,999847
0,856000	0,889893	4,999847
0,857000	0,798492	4,999847
0,858000	0,871124	4,321594
0,859000	0,818787	3,344116
0,860000	0,849915	4,100952
0,861000	0,838165	2,858734
0,862000	0,834961	4,665527
0,863000	0,858765	4,999847
0,864000	0,817108	4,999847
0,865000	0,874786	4,999847
0,866000	0,800018	4,999847
0,867000	0,889130	4,999847
0,868000	0,787048	4,999847
0,869000	0,898132	4,058685
0,870000	0,796356	3,298492
0,871000	0,897522	4,429474
0,872000	0,819550	3,775940
0,873000	0,875702	4,999847
0,874000	0,839996	4,999847
0,875000	0,856476	4,999847
0,876000	0,859680	4,999847
0,877000	0,840149	4,999847
0,878000	0,877686	3,939362
0,879000	0,813446	2,861786
0,880000	0,887604	3,580933
0,881000	0,797272	3,407135
0,882000	0,897980	4,999847
0,883000	0,784454	4,999847
0,884000	0,900879	4,999847
0,885000	0,805817	4,999847
0,886000	0,883179	4,999847
0,887000	0,828705	4,999847
0,888000	0,864716	4,999847
0,889000	0,752411	3,407898
0,890000	0,699310	3,691254
0,891000	0,675049	4,043579
0,892000	0,652008	4,031372
0,893000	0,652924	4,999847
0,894000	0,653381	4,999847
0,895000	0,653381	4,999847
0,896000	0,653381	4,999847
0,897000	0,652771	4,999847
0,898000	0,652924	4,874420
0,899000	0,652618	4,148102
0,900000	0,653076	4,195862
0,901000	0,653076	2,873840
0,902000	0,652924	4,999847
0,903000	0,652618	4,999847
0,904000	0,652313	4,999847
0,905000	0,652008	4,999847
0,906000	0,652161	4,999847
0,907000	0,652008	4,999847
0,908000	0,652008	4,855347
0,909000	0,651855	4,414215
0,910000	0,637360	2,713013
0,911000	0,595398	4,145203
0,912000	0,577240	3,187866
0,913000	0,568695	4,999847
0,914000	0,564880	4,999847
0,915000	0,563202	4,999847
0,916000	0,561981	4,999847
0,917000	0,557251	4,999847
0,918000	0,550537	4,948425
0,919000	0,552368	4,001312
0,920000	0,552521	3,554687
0,921000	0,548096	3,494110
0,922000	0,551147	4,524384
0,923000	0,555267	4,999847
0,924000	0,548859	4,999847
0,925000	0,552979	4,999847
0,926000	0,549011	4,999847
0,927000	0,538940	4,999847
0,928000	0,544891	4,999847
0,929000	0,548706	4,218140
0,930000	0,547485	2,870941
0,931000	0,541992	4,999847
0,932000	0,543213	3,936157
0,933000	0,542297	4,572144
0,934000	0,544434	4,999847
0,935000	0,541077	4,999847
0,936000	0,527496	4,999847
0,937000	0,520172	4,999847
0,938000	0,534973	4,999847
0,939000	0,535889	4,089508
0,940000	0,544586	4,271851
0,941000	0,538635	2,760162
0,942000	0,532074	4,976044
0,943000	0,527191	4,999847
0,944000	0,537262	4,999847
0,945000	0,546570	4,999847
0,946000	0,549927	4,999847
0,947000	0,554504	4,999847
0,948000	0,552368	4,999847
0,949000	0,547180	4,131622
0,950000	0,532837	2,660980
0,951000	0,533600	3,750916
0,952000	0,526733	4,209595
0,953000	0,526733	4,999847
0,954000	0,519714	4,999847
0,955000	0,536957	4,999847
0,956000	0,541534	4,999847
0,957000	0,545654	4,999847
0,958000	0,547638	4,079742
0,959000	0,549316	3,751831
0,960000	0,545197	2,344971
0,961000	0,547638	4,158783
0,962000	0,540619	4,999847
0,963000	0,544586	4,999847
0,964000	0,544434	4,999847
0,965000	0,541382	4,999847
0,966000	0,545654	4,999847
0,967000	0,546570	4,999847
0,968000	0,558014	4,999847
0,969000	0,557098	4,922638
0,970000	0,554810	3,404236
0,971000	0,560150	4,999847
0,972000	0,552979	3,585052
0,973000	0,561371	4,999847
0,974000	0,565338	4,999847
0,975000	0,568085	4,999847
0,976000	0,567169	4,999847
0,977000	0,560608	4,999847
0,978000	0,557556	4,503632
0,979000	0,565338	4,524078
0,980000	0,559387	4,319458
0,981000	0,557404	3,699188
0,982000	0,560760	4,999847
0,983000	0,557404	4,999847
0,984000	0,554962	4,999847
0,985000	0,553436	4,999847
0,986000	0,562286	4,999847
0,987000	0,567169	4,999847
0,988000	0,561676	4,574890
0,989000	0,557709	4,174042
0,990000	0,559998	3,159027
0,991000	0,561981	4,290771
0,992000	0,558319	4,775848
0,993000	0,562592	4,999847
0,994000	0,560913	4,999847
0,995000	0,556641	4,999847
0,996000	0,553741	4,999847
0,997000	0,551300	4,999847
0,998000	0,553284	4,999847
0,999000	0,559082	3,540039

