LabVIEW Measurement	
Writer_Version	2
Reader_Version	2
Separator	Tab
Decimal_Separator	,
Multi_Headings	Yes
X_Columns	One
Time_Pref	Absolute
Operator	d.nicolai
Date	2023/11/09
Time	16:04:05,6565121999996605588
***End_of_Header***	
	
Channels	2		
Samples	1000	1000	
Date	2023/11/09	2023/11/09	
Time	16:04:42,8945123999995373237	16:04:42,8945123999995373237	
Y_Unit_Label	Volts	Volts	
X_Dimension	Time	Time	
X0	0,0000000000000000E+0	0,0000000000000000E+0	
Delta_X	0,001000	0,001000	
***End_of_Header***			
X_Value	powebox	triggerbox	Comment
0,000000	0,617828	0,833435
0,001000	0,621796	4,999847
0,002000	0,618591	4,999847
0,003000	0,621490	4,999847
0,004000	0,627899	4,999847
0,005000	0,624390	4,999847
0,006000	0,625916	4,999847
0,007000	0,620728	4,999847
0,008000	0,627747	4,999847
0,009000	0,622253	4,774933
0,010000	0,636444	3,779602
0,011000	0,625153	4,127350
0,012000	0,635681	3,542633
0,013000	0,623932	4,999847
0,014000	0,635223	4,999847
0,015000	0,624847	4,999847
0,016000	0,630646	4,999847
0,017000	0,628510	4,999847
0,018000	0,632782	4,999847
0,019000	0,631409	3,406219
0,020000	0,627594	3,286591
0,021000	0,632477	4,564056
0,022000	0,625763	4,999847
0,023000	0,633850	4,999847
0,024000	0,619354	4,999847
0,025000	0,631409	4,999847
0,026000	0,613403	4,999847
0,027000	0,632019	4,999847
0,028000	0,618744	4,999847
0,029000	0,631561	4,104309
0,030000	0,625916	4,645844
0,031000	0,628662	4,037170
0,032000	0,626373	3,489227
0,033000	0,624237	4,999847
0,034000	0,630188	4,999847
0,035000	0,622711	4,999847
0,036000	0,633392	4,999847
0,037000	0,617523	4,999847
0,038000	0,635986	4,452057
0,039000	0,615692	3,120422
0,040000	0,640411	1,489716
0,041000	0,618591	4,559021
0,042000	0,641327	4,999847
0,043000	0,623322	4,999847
0,044000	0,637512	4,999847
0,045000	0,629425	4,999847
0,046000	0,633392	4,999847
0,047000	0,634003	4,999847
0,048000	0,619049	4,999847
0,049000	0,619354	3,468781
0,050000	0,619202	2,092133
0,051000	0,643463	4,999847
0,052000	0,625916	3,903198
0,053000	0,652924	4,999847
0,054000	0,628967	4,999847
0,055000	0,660095	4,999847
0,056000	0,628204	4,999847
0,057000	0,655060	4,999847
0,058000	0,637665	4,999847
0,059000	0,650482	3,653412
0,060000	0,642242	4,093323
0,061000	0,642395	4,442749
0,062000	0,647278	4,999847
0,063000	0,637665	4,999847
0,064000	0,652618	4,999847
0,065000	0,634918	4,999847
0,066000	0,660858	4,999847
0,067000	0,633087	4,999847
0,068000	0,668182	4,999847
0,069000	0,631104	4,050598
0,070000	0,672302	3,059082
0,071000	0,642395	4,791870
0,072000	0,668945	3,441467
0,073000	0,650940	4,999847
0,074000	0,663910	4,999847
0,075000	0,660706	4,999847
0,076000	0,659637	4,999847
0,077000	0,667725	4,999847
0,078000	0,650024	4,999847
0,079000	0,672455	2,992706
0,080000	0,650635	3,701019
0,081000	0,681152	2,966003
0,082000	0,641022	4,433289
0,083000	0,685883	4,999847
0,084000	0,644379	4,999847
0,085000	0,686798	4,999847
0,086000	0,648193	4,999847
0,087000	0,672455	4,999847
0,088000	0,653992	4,897766
0,089000	0,648346	3,719025
0,090000	0,616760	3,652802
0,091000	0,625000	4,987030
0,092000	0,657196	4,032745
0,093000	0,644379	4,999847
0,094000	0,679474	4,999847
0,095000	0,639496	4,999847
0,096000	0,687561	4,999847
0,097000	0,639191	4,999847
0,098000	0,699005	4,697571
0,099000	0,650482	2,903900
0,100000	0,694122	4,388733
0,101000	0,660553	3,697968
0,102000	0,681610	4,999847
0,103000	0,663147	4,999847
0,104000	0,671539	4,999847
0,105000	0,677643	4,999847
0,106000	0,664368	4,999847
0,107000	0,689392	4,999847
0,108000	0,652924	4,999847
0,109000	0,696564	4,268188
0,110000	0,641937	4,432373
0,111000	0,703278	3,870239
0,112000	0,641327	3,061981
0,113000	0,712280	4,999847
0,114000	0,656281	4,999847
0,115000	0,704346	4,999847
0,116000	0,666046	4,999847
0,117000	0,689240	4,999847
0,118000	0,677185	4,920044
0,119000	0,677338	4,286041
0,120000	0,691833	2,564697
0,121000	0,664215	4,129944
0,122000	0,702515	4,256287
0,123000	0,665131	4,999847
0,124000	0,716095	4,999847
0,125000	0,662689	4,999847
0,126000	0,728912	4,999847
0,127000	0,657806	4,999847
0,128000	0,729828	4,753723
0,129000	0,677032	4,217377
0,130000	0,713501	4,371643
0,131000	0,680389	3,399658
0,132000	0,693665	4,251404
0,133000	0,690155	4,999847
0,134000	0,684052	4,999847
0,135000	0,707397	4,999847
0,136000	0,679169	4,999847
0,137000	0,722198	4,999847
0,138000	0,675049	4,673309
0,139000	0,736084	3,351288
0,140000	0,664825	4,999847
0,141000	0,745850	3,578949
0,142000	0,669403	4,999847
0,143000	0,739288	4,999847
0,144000	0,689087	4,999847
0,145000	0,729523	4,999847
0,146000	0,708771	4,999847
0,147000	0,716858	4,999847
0,148000	0,719757	4,862671
0,149000	0,707703	3,829041
0,150000	0,734100	3,967896
0,151000	0,692596	4,054871
0,152000	0,743408	4,236298
0,153000	0,686798	4,999847
0,154000	0,757751	4,999847
0,155000	0,671234	4,999847
0,156000	0,765228	4,999847
0,157000	0,681458	4,999847
0,158000	0,751343	4,478149
0,159000	0,701904	3,998871
0,160000	0,732880	3,562469
0,161000	0,716095	3,871307
0,162000	0,719147	4,409332
0,163000	0,732422	4,999847
0,164000	0,704041	4,999847
0,165000	0,744476	4,999847
0,166000	0,696716	4,999847
0,167000	0,762024	4,999847
0,168000	0,687714	4,999847
0,169000	0,774841	4,893341
0,170000	0,677032	2,155914
0,171000	0,723724	4,073181
0,172000	0,743561	3,651276
0,173000	0,752106	4,999847
0,174000	0,755463	4,999847
0,175000	0,756836	4,999847
0,176000	0,758362	4,999847
0,177000	0,811462	4,999847
0,178000	0,716705	4,999847
0,179000	0,792084	3,846588
0,180000	0,697174	2,281494
0,181000	0,793304	4,275665
0,182000	0,706635	4,999847
0,183000	0,770416	4,999847
0,184000	0,728302	4,999847
0,185000	0,743866	4,999847
0,186000	0,738220	4,999847
0,187000	0,731049	4,999847
0,188000	0,756073	4,999847
0,189000	0,718079	4,943848
0,190000	0,771637	3,404083
0,191000	0,709839	3,778839
0,192000	0,748291	3,783722
0,193000	0,645599	4,999847
0,194000	0,748138	4,999847
0,195000	0,645752	4,999847
0,196000	0,744629	4,999847
0,197000	0,689545	4,999847
0,198000	0,766449	4,506989
0,199000	0,737152	3,822937
0,200000	0,758820	4,738617
0,201000	0,760803	3,198395
0,202000	0,756683	4,999847
0,203000	0,787811	4,999847
0,204000	0,750275	4,999847
0,205000	0,805206	4,999847
0,206000	0,736237	4,999847
0,207000	0,818176	4,999847
0,208000	0,717468	4,907990
0,209000	0,829010	4,607697
0,210000	0,729523	2,586670
0,211000	0,818024	4,768219
0,212000	0,749054	3,856506
0,213000	0,796051	4,999847
0,214000	0,766144	4,999847
0,215000	0,785522	4,999847
0,216000	0,790863	4,999847
0,217000	0,766602	4,999847
0,218000	0,805969	4,992523
0,219000	0,752716	3,745117
0,220000	0,822296	4,718475
0,221000	0,737152	3,511353
0,222000	0,835724	4,683838
0,223000	0,727844	4,999847
0,224000	0,850067	4,999847
0,225000	0,757141	4,999847
0,226000	0,844421	4,999847
0,227000	0,780487	4,999847
0,228000	0,827789	4,999847
0,229000	0,800934	4,587708
0,230000	0,806580	2,937012
0,231000	0,817261	4,727478
0,232000	0,790710	3,888855
0,233000	0,834656	4,999847
0,234000	0,770264	4,999847
0,235000	0,848694	4,999847
0,236000	0,757599	4,999847
0,237000	0,864868	4,999847
0,238000	0,760345	4,999847
0,239000	0,875549	4,081573
0,240000	0,785217	4,270325
0,241000	0,865021	4,067841
0,242000	0,807953	4,999847
0,243000	0,845184	4,999847
0,244000	0,827637	4,999847
0,245000	0,832825	4,999847
0,246000	0,831146	4,999847
0,247000	0,793915	4,999847
0,248000	0,845947	4,999847
0,249000	0,779419	3,683014
0,250000	0,861206	3,141327
0,251000	0,757446	4,127045
0,252000	0,870361	3,818970
0,253000	0,767212	4,216919
0,254000	0,873260	4,999847
0,255000	0,794525	4,999847
0,256000	0,848236	4,999847
0,257000	0,809631	4,999847
0,258000	0,804138	4,999847
0,259000	0,814667	3,562622
0,260000	0,782776	3,138428
0,261000	0,829926	3,820648
0,262000	0,768127	4,497375
0,263000	0,847015	4,999847
0,264000	0,755005	4,999847
0,265000	0,864410	4,999847
0,266000	0,761719	4,999847
0,267000	0,881653	4,999847
0,268000	0,797119	4,999847
0,269000	0,881195	4,084625
0,270000	0,816193	3,877716
0,271000	0,861664	2,967834
0,272000	0,836182	3,847198
0,273000	0,844574	4,986572
0,274000	0,856018	4,999847
0,275000	0,826416	4,999847
0,276000	0,870819	4,999847
0,277000	0,810089	4,999847
0,278000	0,881500	4,999847
0,279000	0,793915	3,613281
0,280000	0,887604	4,859772
0,281000	0,792999	3,106995
0,282000	0,889435	4,999847
0,283000	0,814514	4,999847
0,284000	0,875549	4,999847
0,285000	0,830231	4,999847
0,286000	0,863647	4,999847
0,287000	0,854950	4,999847
0,288000	0,846252	4,999847
0,289000	0,872345	3,555298
0,290000	0,831604	2,638550
0,291000	0,730438	3,705292
0,292000	0,683594	3,968506
0,293000	0,662689	4,429169
0,294000	0,632782	4,999847
0,295000	0,616913	4,999847
0,296000	0,614471	4,999847
0,297000	0,611725	4,999847
0,298000	0,608368	4,999847
0,299000	0,623016	2,493134
0,300000	0,634460	3,629303
0,301000	0,639496	4,941406
0,302000	0,641327	4,268799
0,303000	0,612030	4,999847
0,304000	0,587616	4,999847
0,305000	0,576782	4,999847
0,306000	0,570221	4,999847
0,307000	0,564728	4,999847
0,308000	0,558167	4,789886
0,309000	0,559540	3,961334
0,310000	0,562286	3,110962
0,311000	0,562286	4,439697
0,312000	0,554199	3,549042
0,313000	0,552368	4,999847
0,314000	0,553131	4,999847
0,315000	0,548401	4,999847
0,316000	0,545654	4,999847
0,317000	0,545654	4,999847
0,318000	0,552216	4,273529
0,319000	0,555267	3,761292
0,320000	0,554657	3,691864
0,321000	0,552063	3,629761
0,322000	0,541687	4,999847
0,323000	0,547028	4,999847
0,324000	0,545044	4,999847
0,325000	0,552368	4,999847
0,326000	0,548248	4,999847
0,327000	0,549469	4,999847
0,328000	0,548401	4,629822
0,329000	0,549622	3,536530
0,330000	0,540924	3,215332
0,331000	0,536194	4,188690
0,332000	0,534973	4,740753
0,333000	0,534515	4,999847
0,334000	0,536346	4,999847
0,335000	0,538025	4,999847
0,336000	0,542145	4,999847
0,337000	0,524750	4,999847
0,338000	0,528564	4,435883
0,339000	0,523834	3,505707
0,340000	0,531464	4,047394
0,341000	0,537720	4,213409
0,342000	0,533600	4,550018
0,343000	0,530090	4,999847
0,344000	0,531769	4,999847
0,345000	0,535431	4,999847
0,346000	0,536194	4,999847
0,347000	0,534668	4,999847
0,348000	0,541077	4,999847
0,349000	0,516052	4,482269
0,350000	0,535889	3,678284
0,351000	0,552673	4,239044
0,352000	0,563660	3,816071
0,353000	0,569916	4,999847
0,354000	0,571289	4,999847
0,355000	0,571289	4,999847
0,356000	0,565338	4,999847
0,357000	0,562134	4,999847
0,358000	0,559082	4,624176
0,359000	0,555267	4,210205
0,360000	0,537872	2,943115
0,361000	0,548859	4,325714
0,362000	0,559540	4,999847
0,363000	0,554810	4,999847
0,364000	0,554657	4,999847
0,365000	0,545502	4,999847
0,366000	0,537872	4,999847
0,367000	0,540009	4,999847
0,368000	0,545807	4,999847
0,369000	0,541077	4,926300
0,370000	0,540009	3,002472
0,371000	0,540619	3,924866
0,372000	0,547638	4,538269
0,373000	0,544128	4,999847
0,374000	0,546875	4,999847
0,375000	0,535126	4,999847
0,376000	0,528412	4,999847
0,377000	0,502014	4,999847
0,378000	0,498199	4,310760
0,379000	0,467682	3,539886
0,380000	0,498962	2,794189
0,381000	0,521698	3,829346
0,382000	0,534973	4,999847
0,383000	0,531769	4,999847
0,384000	0,528412	4,999847
0,385000	0,475464	4,999847
0,386000	0,491943	4,999847
0,387000	0,473480	4,999847
0,388000	0,483093	4,999847
0,389000	0,484314	4,999847
0,390000	0,497437	3,402100
0,391000	0,517731	4,038086
0,392000	0,530090	3,498230
0,393000	0,540466	4,999847
0,394000	0,541840	4,999847
0,395000	0,547638	4,999847
0,396000	0,538025	4,999847
0,397000	0,506439	4,999847
0,398000	0,496521	4,423676
0,399000	0,531311	3,175201
0,400000	0,544739	3,906403
0,401000	0,555878	3,632507
0,402000	0,541229	4,999847
0,403000	0,550079	4,999847
0,404000	0,546417	4,999847
0,405000	0,555115	4,999847
0,406000	0,562134	4,999847
0,407000	0,556793	4,999847
0,408000	0,546722	4,999847
0,409000	0,550690	4,900665
0,410000	0,563965	3,173523
0,411000	0,503540	4,999847
0,412000	0,539703	4,745483
0,413000	0,520630	4,999847
0,414000	0,555725	4,999847
0,415000	0,568390	4,999847
0,416000	0,576324	4,999847
0,417000	0,578003	4,999847
0,418000	0,579071	4,290314
0,419000	0,578461	3,346252
0,420000	0,575562	3,956909
0,421000	0,581970	3,015747
0,422000	0,573120	4,999847
0,423000	0,582275	4,999847
0,424000	0,577393	4,999847
0,425000	0,587921	4,999847
0,426000	0,531311	4,999847
0,427000	0,568695	4,999847
0,428000	0,570221	4,999847
0,429000	0,578613	3,890533
0,430000	0,570984	3,146515
0,431000	0,575867	3,367767
0,432000	0,572662	3,953094
0,433000	0,580139	4,999847
0,434000	0,585175	4,999847
0,435000	0,575867	4,999847
0,436000	0,585785	4,999847
0,437000	0,567474	4,999847
0,438000	0,588989	4,999847
0,439000	0,494690	3,389282
0,440000	0,557709	3,245239
0,441000	0,551300	3,032227
0,442000	0,585937	3,874664
0,443000	0,583191	4,999847
0,444000	0,595703	4,999847
0,445000	0,592804	4,999847
0,446000	0,558777	4,999847
0,447000	0,543060	4,999847
0,448000	0,521698	4,999847
0,449000	0,543518	3,843231
0,450000	0,509491	3,871307
0,451000	0,553741	3,676910
0,452000	0,504761	4,285431
0,453000	0,565948	4,577637
0,454000	0,502319	4,999847
0,455000	0,575104	4,999847
0,456000	0,563660	4,999847
0,457000	0,597076	4,999847
0,458000	0,587921	4,991455
0,459000	0,603333	4,079437
0,460000	0,602570	3,793640
0,461000	0,604095	3,789520
0,462000	0,608978	4,999847
0,463000	0,604248	4,999847
0,464000	0,617218	4,999847
0,465000	0,599518	4,999847
0,466000	0,621490	4,999847
0,467000	0,596771	4,999847
0,468000	0,628204	4,999847
0,469000	0,591583	4,774475
0,470000	0,627289	2,908478
0,471000	0,592651	4,732513
0,472000	0,612793	3,192902
0,473000	0,579681	4,999847
0,474000	0,604553	4,999847
0,475000	0,607910	4,999847
0,476000	0,608826	4,999847
0,477000	0,614319	4,999847
0,478000	0,592651	4,830170
0,479000	0,622864	4,276428
0,480000	0,570679	2,982941
0,481000	0,620880	4,513245
0,482000	0,582275	4,525299
0,483000	0,635223	4,999847
0,484000	0,581665	4,999847
0,485000	0,622101	4,999847
0,486000	0,547180	4,999847
0,487000	0,606842	4,999847
0,488000	0,606995	4,999847
0,489000	0,623322	4,236450
0,490000	0,622559	2,811737
0,491000	0,618896	4,382782
0,492000	0,634155	3,230133
0,493000	0,611115	4,999847
0,494000	0,642548	4,999847
0,495000	0,610962	4,999847
0,496000	0,653839	4,999847
0,497000	0,595551	4,999847
0,498000	0,655060	4,999847
0,499000	0,571442	3,652191
0,500000	0,607605	3,088989
0,501000	0,585022	4,892731
0,502000	0,599213	4,999847
0,503000	0,587769	4,999847
0,504000	0,587616	4,999847
0,505000	0,588226	4,999847
0,506000	0,606232	4,999847
0,507000	0,638123	4,999847
0,508000	0,617065	4,911652
0,509000	0,658569	4,143677
0,510000	0,616302	3,355865
0,511000	0,669403	4,131165
0,512000	0,610504	3,954773
0,513000	0,671234	4,999847
0,514000	0,617523	4,999847
0,515000	0,657959	4,999847
0,516000	0,625763	4,999847
0,517000	0,644073	4,999847
0,518000	0,640869	4,422607
0,519000	0,636597	4,028015
0,520000	0,650330	4,385834
0,521000	0,628052	3,798370
0,522000	0,681000	3,977356
0,523000	0,629425	4,999847
0,524000	0,687714	4,999847
0,525000	0,632019	4,999847
0,526000	0,702209	4,999847
0,527000	0,632019	4,999847
0,528000	0,691833	4,797363
0,529000	0,601196	3,972168
0,530000	0,649872	3,002472
0,531000	0,612946	3,665771
0,532000	0,628815	2,915344
0,533000	0,630035	4,999847
0,534000	0,614624	4,999847
0,535000	0,648193	4,999847
0,536000	0,606384	4,999847
0,537000	0,673676	4,999847
0,538000	0,643616	4,792328
0,539000	0,711365	3,584290
0,540000	0,651398	3,537292
0,541000	0,727539	3,685608
0,542000	0,663300	4,999847
0,543000	0,722656	4,999847
0,544000	0,681763	4,999847
0,545000	0,710907	4,999847
0,546000	0,691986	4,999847
0,547000	0,700226	4,999847
0,548000	0,705719	4,672852
0,549000	0,690155	4,827118
0,550000	0,625916	3,740692
0,551000	0,587616	4,675293
0,552000	0,570068	3,607330
0,553000	0,688782	4,999847
0,554000	0,645599	4,999847
0,555000	0,700378	4,999847
0,556000	0,669708	4,999847
0,557000	0,689545	4,999847
0,558000	0,691833	4,259338
0,559000	0,682068	3,994293
0,560000	0,707092	3,098145
0,561000	0,671844	4,453125
0,562000	0,716095	4,786835
0,563000	0,666351	4,999847
0,564000	0,738373	4,999847
0,565000	0,658417	4,999847
0,566000	0,750275	4,999847
0,567000	0,661926	4,999847
0,568000	0,737762	4,553986
0,569000	0,681152	4,999847
0,570000	0,723724	3,694153
0,571000	0,701447	3,318024
0,572000	0,704651	3,820648
0,573000	0,710907	4,878082
0,574000	0,699615	4,999847
0,575000	0,731354	4,999847
0,576000	0,691528	4,999847
0,577000	0,750427	4,999847
0,578000	0,679474	4,999847
0,579000	0,760498	4,585266
0,580000	0,664520	4,433594
0,581000	0,767670	2,623901
0,582000	0,677948	4,999847
0,583000	0,747223	4,999847
0,584000	0,693512	4,999847
0,585000	0,734100	4,999847
0,586000	0,719147	4,999847
0,587000	0,726166	4,999847
0,588000	0,741730	4,999847
0,589000	0,710754	4,006958
0,590000	0,754395	3,633728
0,591000	0,697021	4,611359
0,592000	0,768890	4,340515
0,593000	0,683899	4,999847
0,594000	0,780945	4,999847
0,595000	0,677032	4,999847
0,596000	0,782166	4,999847
0,597000	0,663452	4,999847
0,598000	0,726166	3,992767
0,599000	0,685577	3,342896
0,600000	0,712128	3,972168
0,601000	0,689545	3,426361
0,602000	0,641785	4,938812
0,603000	0,665283	4,999847
0,604000	0,654297	4,999847
0,605000	0,725098	4,999847
0,606000	0,666656	4,999847
0,607000	0,751038	4,999847
0,608000	0,659790	4,999847
0,609000	0,765686	4,433289
0,610000	0,666351	3,474121
0,611000	0,761719	4,503479
0,612000	0,688934	4,999847
0,613000	0,743103	4,999847
0,614000	0,707855	4,999847
0,615000	0,710754	4,999847
0,616000	0,719452	4,999847
0,617000	0,709839	4,999847
0,618000	0,746307	4,823456
0,619000	0,696564	3,588257
0,620000	0,761261	3,632050
0,621000	0,683899	2,327881
0,622000	0,774841	4,735565
0,623000	0,674133	4,999847
0,624000	0,789948	4,999847
0,625000	0,689392	4,999847
0,626000	0,775146	4,999847
0,627000	0,711823	4,999847
0,628000	0,756073	4,999847
0,629000	0,734711	4,999847
0,630000	0,743713	4,356537
0,631000	0,754547	3,138275
0,632000	0,730438	3,864288
0,633000	0,773773	4,999847
0,634000	0,715027	4,999847
0,635000	0,787506	4,999847
0,636000	0,702515	4,999847
0,637000	0,801544	4,999847
0,638000	0,694275	4,999847
0,639000	0,814819	4,046936
0,640000	0,720978	3,726654
0,641000	0,800323	4,019470
0,642000	0,743866	4,999847
0,643000	0,786896	4,999847
0,644000	0,767059	4,999847
0,645000	0,769806	4,999847
0,646000	0,784149	4,999847
0,647000	0,748138	4,999847
0,648000	0,797272	4,999847
0,649000	0,727386	4,689026
0,650000	0,809937	2,435913
0,651000	0,716705	4,000854
0,652000	0,825653	3,426208
0,653000	0,717316	4,999847
0,654000	0,823517	4,999847
0,655000	0,740814	4,999847
0,656000	0,799561	4,999847
0,657000	0,760498	4,999847
0,658000	0,778046	4,328156
0,659000	0,778656	4,079895
0,660000	0,763245	3,246765
0,661000	0,797577	4,426270
0,662000	0,746765	4,999847
0,663000	0,811615	4,999847
0,664000	0,730286	4,999847
0,665000	0,825958	4,999847
0,666000	0,717926	4,999847
0,667000	0,844727	4,999847
0,668000	0,750275	4,999847
0,669000	0,858765	4,093475
0,670000	0,778809	2,787170
0,671000	0,839539	3,701019
0,672000	0,798340	3,272247
0,673000	0,815735	4,999847
0,674000	0,814972	4,999847
0,675000	0,797577	4,999847
0,676000	0,832672	4,999847
0,677000	0,779419	4,999847
0,678000	0,848236	4,999847
0,679000	0,767059	3,832092
0,680000	0,865021	3,871155
0,681000	0,757904	4,861755
0,682000	0,877991	4,999847
0,683000	0,778961	4,999847
0,684000	0,861664	4,999847
0,685000	0,797729	4,999847
0,686000	0,841827	4,999847
0,687000	0,818329	4,999847
0,688000	0,822296	4,946136
0,689000	0,836639	4,644318
0,690000	0,802612	3,733215
0,691000	0,853119	4,695435
0,692000	0,787811	4,371643
0,693000	0,869598	4,999847
0,694000	0,776520	4,999847
0,695000	0,883179	4,999847
0,696000	0,774841	4,999847
0,697000	0,882874	4,999847
0,698000	0,795135	4,999847
0,699000	0,863953	3,627472
0,700000	0,818176	4,043274
0,701000	0,844269	4,460754
0,702000	0,838013	4,999847
0,703000	0,826721	4,999847
0,704000	0,803223	4,999847
0,705000	0,735474	4,999847
0,706000	0,787354	4,999847
0,707000	0,750580	4,999847
0,708000	0,866394	4,999847
0,709000	0,773468	4,999847
0,710000	0,890656	3,119354
0,711000	0,789337	4,112854
0,712000	0,878296	4,047089
0,713000	0,810394	4,999847
0,714000	0,861206	4,999847
0,715000	0,833893	4,999847
0,716000	0,839691	4,999847
0,717000	0,852051	4,999847
0,718000	0,827332	4,723969
0,719000	0,731201	4,367371
0,720000	0,688019	2,958679
0,721000	0,667725	4,187317
0,722000	0,657959	4,999847
0,723000	0,653229	4,999847
0,724000	0,651550	4,999847
0,725000	0,650940	4,999847
0,726000	0,649872	4,999847
0,727000	0,649109	4,999847
0,728000	0,648804	4,999847
0,729000	0,648651	4,001160
0,730000	0,648956	3,502197
0,731000	0,648804	4,999847
0,732000	0,648804	3,581543
0,733000	0,648499	4,999847
0,734000	0,648499	4,999847
0,735000	0,648041	4,999847
0,736000	0,647736	4,999847
0,737000	0,647888	4,999847
0,738000	0,647736	4,816742
0,739000	0,647736	3,580627
0,740000	0,647583	3,202820
0,741000	0,596161	4,999847
0,742000	0,577240	4,999847
0,743000	0,555573	4,999847
0,744000	0,548248	4,999847
0,745000	0,544586	4,999847
0,746000	0,543671	4,999847
0,747000	0,541382	4,999847
0,748000	0,541229	4,999847
0,749000	0,544891	3,748322
0,750000	0,540314	3,431854
0,751000	0,544128	4,869232
0,752000	0,546112	4,111938
0,753000	0,546417	4,999847
0,754000	0,539551	4,999847
0,755000	0,538483	4,999847
0,756000	0,540924	4,999847
0,757000	0,549164	4,999847
0,758000	0,553741	4,999847
0,759000	0,552979	3,948822
0,760000	0,545349	4,308472
0,761000	0,546722	2,620697
0,762000	0,545654	4,696808
0,763000	0,541992	4,999847
0,764000	0,546875	4,999847
0,765000	0,547485	4,999847
0,766000	0,548096	4,999847
0,767000	0,546112	4,999847
0,768000	0,544128	4,859467
0,769000	0,537720	3,666992
0,770000	0,540619	3,341522
0,771000	0,538330	4,205170
0,772000	0,546875	3,675842
0,773000	0,542603	4,999847
0,774000	0,543365	4,999847
0,775000	0,541077	4,999847
0,776000	0,543518	4,999847
0,777000	0,544739	4,999847
0,778000	0,542603	4,999847
0,779000	0,539093	3,324280
0,780000	0,536652	3,073273
0,781000	0,536041	4,021149
0,782000	0,530243	4,752960
0,783000	0,535431	4,999847
0,784000	0,534973	4,999847
0,785000	0,538940	4,999847
0,786000	0,532837	4,999847
0,787000	0,539398	4,999847
0,788000	0,538483	4,754486
0,789000	0,540771	3,276825
0,790000	0,543518	3,627777
0,791000	0,545959	4,613190
0,792000	0,542755	3,554230
0,793000	0,545197	4,999847
0,794000	0,552368	4,999847
0,795000	0,550995	4,999847
0,796000	0,552063	4,999847
0,797000	0,541687	4,999847
0,798000	0,530243	4,973755
0,799000	0,542297	4,049377
0,800000	0,554810	3,812256
0,801000	0,557556	4,247894
0,802000	0,557251	4,180145
0,803000	0,553284	4,999847
0,804000	0,555573	4,999847
0,805000	0,555878	4,999847
0,806000	0,522461	4,999847
0,807000	0,505066	4,999847
0,808000	0,534821	4,999847
0,809000	0,548096	4,999847
0,810000	0,548706	3,339081
0,811000	0,552216	4,677887
0,812000	0,551147	3,956909
0,813000	0,549011	4,999847
0,814000	0,546417	4,999847
0,815000	0,544739	4,999847
0,816000	0,539703	4,999847
0,817000	0,526886	4,999847
0,818000	0,533752	4,449921
0,819000	0,538177	4,150085
0,820000	0,537109	4,004822
0,821000	0,542603	3,634796
0,822000	0,545654	4,999847
0,823000	0,548096	4,999847
0,824000	0,552826	4,999847
0,825000	0,555420	4,999847
0,826000	0,559998	4,999847
0,827000	0,562897	4,999847
0,828000	0,564575	4,413147
0,829000	0,562134	4,541016
0,830000	0,561676	3,142853
0,831000	0,559692	4,983215
0,832000	0,565796	4,258118
0,833000	0,569916	4,999847
0,834000	0,570374	4,999847
0,835000	0,569763	4,999847
0,836000	0,569153	4,999847
0,837000	0,570068	4,999847
0,838000	0,568542	4,999847
0,839000	0,567780	4,470673
0,840000	0,569305	3,868866
0,841000	0,570526	3,642273
0,842000	0,567627	4,999847
0,843000	0,564117	4,999847
0,844000	0,569916	4,999847
0,845000	0,567627	4,999847
0,846000	0,565338	4,999847
0,847000	0,559998	4,999847
0,848000	0,557251	4,530640
0,849000	0,554962	4,999847
0,850000	0,549164	3,399506
0,851000	0,552826	4,638977
0,852000	0,546417	3,912506
0,853000	0,555725	4,999847
0,854000	0,550537	4,999847
0,855000	0,561371	4,999847
0,856000	0,555878	4,999847
0,857000	0,569000	4,999847
0,858000	0,561523	4,999847
0,859000	0,572815	3,544159
0,860000	0,563812	3,380585
0,861000	0,572815	2,985992
0,862000	0,571899	4,916229
0,863000	0,576477	4,999847
0,864000	0,578766	4,999847
0,865000	0,570221	4,999847
0,866000	0,579376	4,999847
0,867000	0,580902	4,999847
0,868000	0,592041	4,999847
0,869000	0,603485	4,653625
0,870000	0,613403	3,599091
0,871000	0,595398	4,784546
0,872000	0,613556	3,482666
0,873000	0,593719	4,999847
0,874000	0,612335	4,999847
0,875000	0,602875	4,999847
0,876000	0,609436	4,999847
0,877000	0,606384	4,999847
0,878000	0,606384	4,383545
0,879000	0,614166	3,710785
0,880000	0,612335	3,936615
0,881000	0,620270	4,333191
0,882000	0,539093	4,999847
0,883000	0,573120	4,999847
0,884000	0,503693	4,999847
0,885000	0,570679	4,999847
0,886000	0,577545	4,999847
0,887000	0,617828	4,999847
0,888000	0,614471	4,999847
0,889000	0,631256	4,952698
0,890000	0,619965	3,077850
0,891000	0,628510	4,355011
0,892000	0,623474	4,336853
0,893000	0,594635	4,999847
0,894000	0,615387	4,999847
0,895000	0,617523	4,999847
0,896000	0,633392	4,999847
0,897000	0,614777	4,999847
0,898000	0,637512	4,990387
0,899000	0,612793	4,495544
0,900000	0,643005	3,565826
0,901000	0,599365	4,223175
0,902000	0,637512	4,999847
0,903000	0,607452	4,999847
0,904000	0,629730	4,999847
0,905000	0,613556	4,999847
0,906000	0,621643	4,999847
0,907000	0,621948	4,999847
0,908000	0,616608	4,999847
0,909000	0,570526	4,966583
0,910000	0,564728	3,427887
0,911000	0,614471	3,827515
0,912000	0,600433	4,790192
0,913000	0,641785	4,999847
0,914000	0,601349	4,999847
0,915000	0,650787	4,999847
0,916000	0,602722	4,999847
0,917000	0,645447	4,999847
0,918000	0,617065	4,999847
0,919000	0,640869	4,714661
0,920000	0,629425	4,032135
0,921000	0,632477	4,798584
0,922000	0,636597	4,999847
0,923000	0,629425	4,561920
0,924000	0,648956	4,999847
0,925000	0,623016	4,999847
0,926000	0,655518	4,999847
0,927000	0,617065	4,999847
0,928000	0,662384	4,858856
0,929000	0,603027	4,061584
0,930000	0,664215	3,017883
0,931000	0,617981	4,999847
0,932000	0,657043	3,859558
0,933000	0,621643	4,999847
0,934000	0,645447	4,999847
0,935000	0,636139	4,999847
0,936000	0,632172	4,999847
0,937000	0,640717	4,999847
0,938000	0,623627	4,999847
0,939000	0,652008	3,533020
0,940000	0,620575	3,430328
0,941000	0,667267	3,449097
0,942000	0,618286	4,999847
0,943000	0,677338	4,999847
0,944000	0,611267	4,999847
0,945000	0,676117	4,999847
0,946000	0,629120	4,999847
0,947000	0,668793	4,999847
0,948000	0,644836	4,999847
0,949000	0,657959	4,999847
0,950000	0,653076	3,264618
0,951000	0,615845	4,998322
0,952000	0,632629	4,640350
0,953000	0,601959	4,999847
0,954000	0,638428	4,999847
0,955000	0,589142	4,999847
0,956000	0,647430	4,999847
0,957000	0,575867	4,999847
0,958000	0,653229	4,720306
0,959000	0,572662	3,982849
0,960000	0,642242	2,696686
0,961000	0,582733	3,877563
0,962000	0,630798	4,930420
0,963000	0,609741	4,999847
0,964000	0,619049	4,999847
0,965000	0,622253	4,999847
0,966000	0,608521	4,999847
0,967000	0,639954	4,999847
0,968000	0,610809	4,999847
0,969000	0,659485	4,388275
0,970000	0,605164	3,279419
0,971000	0,670166	4,252319
0,972000	0,591736	2,918243
0,973000	0,676270	4,999847
0,974000	0,586700	4,999847
0,975000	0,649872	4,999847
0,976000	0,601654	4,999847
0,977000	0,641022	4,999847
0,978000	0,634460	4,840088
0,979000	0,644836	3,420258
0,980000	0,656433	4,039612
0,981000	0,640564	3,759460
0,982000	0,674286	4,999847
0,983000	0,637360	4,999847
0,984000	0,688782	4,999847
0,985000	0,635223	4,999847
0,986000	0,702515	4,999847
0,987000	0,635986	4,999847
0,988000	0,599213	4,999847
0,989000	0,582275	3,696594
0,990000	0,641632	3,000183
0,991000	0,651855	4,500275
0,992000	0,690002	3,934021
0,993000	0,659027	4,999847
0,994000	0,706940	4,999847
0,995000	0,650330	4,999847
0,996000	0,716705	4,999847
0,997000	0,642548	4,999847
0,998000	0,723724	4,548492
0,999000	0,655212	3,068085

