LabVIEW Measurement	
Writer_Version	2
Reader_Version	2
Separator	Tab
Decimal_Separator	,
Multi_Headings	Yes
X_Columns	One
Time_Pref	Absolute
Operator	d.nicolai
Date	2023/11/09
Time	16:04:05,6565121999996605588
***End_of_Header***	
	
Channels	2		
Samples	1000	1000	
Date	2023/11/09	2023/11/09	
Time	16:04:53,5075133999997377095	16:04:53,5075133999997377095	
Y_Unit_Label	Volts	Volts	
X_Dimension	Time	Time	
X0	0,0000000000000000E+0	0,0000000000000000E+0	
Delta_X	0,001000	0,001000	
***End_of_Header***			
X_Value	powebox	triggerbox	Comment
0,000000	0,663910	0,811768
0,001000	0,625153	4,905243
0,002000	0,646973	4,999847
0,003000	0,645294	4,585419
0,004000	0,632172	4,999847
0,005000	0,664215	4,999847
0,006000	0,619049	4,999847
0,007000	0,681305	4,959869
0,008000	0,608978	4,766541
0,009000	0,697937	4,135437
0,010000	0,598145	2,168579
0,011000	0,712891	4,999847
0,012000	0,601654	4,999847
0,013000	0,694427	4,999847
0,014000	0,627289	4,999847
0,015000	0,677338	4,999847
0,016000	0,650330	4,999847
0,017000	0,661316	4,999847
0,018000	0,671997	4,999847
0,019000	0,648346	3,571930
0,020000	0,690308	2,934265
0,021000	0,637207	4,144592
0,022000	0,707703	4,999847
0,023000	0,625458	4,999847
0,024000	0,698547	4,999847
0,025000	0,602570	4,999847
0,026000	0,724640	4,999847
0,027000	0,630188	4,999847
0,028000	0,711060	4,820862
0,029000	0,656891	3,101044
0,030000	0,695496	4,171295
0,031000	0,679932	3,814240
0,032000	0,679169	4,847412
0,033000	0,699005	4,999847
0,034000	0,666809	4,999847
0,035000	0,719299	4,999847
0,036000	0,655823	4,999847
0,037000	0,736389	4,999847
0,038000	0,646057	4,999847
0,039000	0,752106	4,867859
0,040000	0,637054	2,098541
0,041000	0,747223	4,827576
0,042000	0,662231	4,801636
0,043000	0,728149	4,999847
0,044000	0,685425	4,999847
0,045000	0,710907	4,999847
0,046000	0,707550	4,999847
0,047000	0,697327	4,999847
0,048000	0,727997	4,999847
0,049000	0,684509	3,468475
0,050000	0,746613	3,786621
0,051000	0,673676	4,999847
0,052000	0,762939	4,999847
0,053000	0,663147	4,999847
0,054000	0,778046	4,999847
0,055000	0,665436	4,999847
0,056000	0,762177	4,999847
0,057000	0,690308	4,999847
0,058000	0,744171	4,999847
0,059000	0,713348	3,787384
0,060000	0,727234	4,999847
0,061000	0,714417	4,325867
0,062000	0,692596	4,999847
0,063000	0,731201	4,999847
0,064000	0,679016	4,999847
0,065000	0,748138	4,999847
0,066000	0,668793	4,999847
0,067000	0,764313	4,999847
0,068000	0,660095	4,775238
0,069000	0,771637	3,118286
0,070000	0,672455	2,941284
0,071000	0,752411	4,236755
0,072000	0,697021	4,556885
0,073000	0,735779	4,999847
0,074000	0,718842	4,999847
0,075000	0,721283	4,999847
0,076000	0,739136	4,999847
0,077000	0,708313	4,999847
0,078000	0,757751	4,999847
0,079000	0,696564	3,241425
0,080000	0,774231	4,721375
0,081000	0,686798	3,491669
0,082000	0,789032	4,504852
0,083000	0,677032	4,999847
0,084000	0,785675	4,999847
0,085000	0,700989	4,999847
0,086000	0,768280	4,999847
0,087000	0,724792	4,999847
0,088000	0,752258	4,999847
0,089000	0,746460	2,858734
0,090000	0,737610	1,831818
0,091000	0,765991	3,487701
0,092000	0,725098	4,999847
0,093000	0,783539	4,999847
0,094000	0,714417	4,999847
0,095000	0,800323	4,999847
0,096000	0,704498	4,999847
0,097000	0,815887	4,999847
0,098000	0,703735	4,999847
0,099000	0,802460	3,380890
0,100000	0,729675	4,999847
0,101000	0,784760	3,660278
0,102000	0,752258	4,983673
0,103000	0,769043	4,999847
0,104000	0,773621	4,999847
0,105000	0,755005	4,999847
0,106000	0,791626	4,999847
0,107000	0,742187	4,999847
0,108000	0,809174	4,900360
0,109000	0,731201	2,883759
0,110000	0,825958	4,371948
0,111000	0,721893	4,776459
0,112000	0,836639	4,999847
0,113000	0,731201	4,999847
0,114000	0,817566	4,999847
0,115000	0,755920	4,999847
0,116000	0,800476	4,999847
0,117000	0,778046	4,999847
0,118000	0,785980	4,999847
0,119000	0,798950	4,410553
0,120000	0,772400	3,925781
0,121000	0,818481	4,349670
0,122000	0,760345	4,316101
0,123000	0,744019	4,999847
0,124000	0,751495	4,999847
0,125000	0,755157	4,999847
0,126000	0,750580	4,999847
0,127000	0,784760	4,999847
0,128000	0,788727	4,999847
0,129000	0,834961	3,367310
0,130000	0,802765	2,369843
0,131000	0,855560	3,366699
0,132000	0,790253	4,482117
0,133000	0,874176	4,999847
0,134000	0,778961	4,999847
0,135000	0,859070	4,999847
0,136000	0,742493	4,999847
0,137000	0,852356	4,999847
0,138000	0,766907	4,526978
0,139000	0,833893	4,089355
0,140000	0,789642	3,180695
0,141000	0,817413	3,890533
0,142000	0,809937	4,685669
0,143000	0,802155	4,999847
0,144000	0,829468	4,999847
0,145000	0,787811	4,999847
0,146000	0,848541	4,999847
0,147000	0,774231	4,999847
0,148000	0,865479	4,999847
0,149000	0,749969	2,697449
0,150000	0,864105	4,201355
0,151000	0,752106	3,642731
0,152000	0,844574	4,937897
0,153000	0,775452	4,999847
0,154000	0,827179	4,999847
0,155000	0,796814	4,999847
0,156000	0,811462	4,999847
0,157000	0,817566	4,999847
0,158000	0,796356	4,954376
0,159000	0,836487	4,358521
0,160000	0,782318	4,601593
0,161000	0,854034	3,267670
0,162000	0,769043	4,999847
0,163000	0,867615	4,999847
0,164000	0,757446	4,999847
0,165000	0,867310	4,999847
0,166000	0,769958	4,999847
0,167000	0,845947	4,999847
0,168000	0,792847	4,147034
0,169000	0,828705	3,663330
0,170000	0,729218	4,491577
0,171000	0,682373	3,469849
0,172000	0,660553	4,999847
0,173000	0,651093	4,999847
0,174000	0,646820	4,999847
0,175000	0,644989	4,999847
0,176000	0,643768	4,999847
0,177000	0,643463	4,999847
0,178000	0,643463	4,210510
0,179000	0,643158	4,686432
0,180000	0,642853	3,601990
0,181000	0,643005	4,354858
0,182000	0,642548	4,548798
0,183000	0,642395	4,999847
0,184000	0,642700	4,999847
0,185000	0,642395	4,999847
0,186000	0,642853	4,999847
0,187000	0,643005	4,999847
0,188000	0,642853	4,441681
0,189000	0,643005	3,539124
0,190000	0,526276	3,223724
0,191000	0,447845	3,946838
0,192000	0,429535	4,999847
0,193000	0,402069	4,999847
0,194000	0,410919	4,999847
0,195000	0,394440	4,999847
0,196000	0,404663	4,999847
0,197000	0,396576	4,999847
0,198000	0,402069	4,999847
0,199000	0,399780	3,656311
0,200000	0,400391	2,896118
0,201000	0,404053	3,600922
0,202000	0,398865	4,999847
0,203000	0,407715	4,999847
0,204000	0,397491	4,999847
0,205000	0,411682	4,999847
0,206000	0,396576	4,999847
0,207000	0,415802	4,999847
0,208000	0,395813	4,351959
0,209000	0,417633	3,992310
0,210000	0,402069	4,999847
0,211000	0,419312	3,810272
0,212000	0,410614	4,933777
0,213000	0,416412	4,999847
0,214000	0,415649	4,999847
0,215000	0,414581	4,999847
0,216000	0,420990	4,999847
0,217000	0,411987	4,999847
0,218000	0,426025	4,337616
0,219000	0,410004	3,688660
0,220000	0,430145	3,500366
0,221000	0,407257	2,528534
0,222000	0,433350	4,999847
0,223000	0,406342	4,999847
0,224000	0,430450	4,999847
0,225000	0,412140	4,999847
0,226000	0,426941	4,999847
0,227000	0,419617	4,999847
0,228000	0,424652	4,868774
0,229000	0,398102	3,721466
0,230000	0,405273	3,800964
0,231000	0,424347	3,617249
0,232000	0,414124	4,999847
0,233000	0,436096	4,999847
0,234000	0,414276	4,999847
0,235000	0,443573	4,999847
0,236000	0,412750	4,999847
0,237000	0,447693	4,999847
0,238000	0,417480	4,999847
0,239000	0,443573	4,104004
0,240000	0,424957	3,224487
0,241000	0,438843	3,865356
0,242000	0,432739	4,999847
0,243000	0,434113	4,999847
0,244000	0,439758	4,999847
0,245000	0,430145	4,999847
0,246000	0,447083	4,999847
0,247000	0,426788	4,999847
0,248000	0,453949	4,910278
0,249000	0,423279	2,875214
0,250000	0,459595	3,481903
0,251000	0,419922	4,950256
0,252000	0,460358	4,999847
0,253000	0,427704	4,999847
0,254000	0,454254	4,999847
0,255000	0,437317	4,999847
0,256000	0,448761	4,999847
0,257000	0,445862	4,999847
0,258000	0,443268	4,999847
0,259000	0,454102	4,839935
0,260000	0,438538	3,173370
0,261000	0,461731	3,522949
0,262000	0,434113	4,999847
0,263000	0,468597	4,999847
0,264000	0,429382	4,999847
0,265000	0,475769	4,999847
0,266000	0,428619	4,999847
0,267000	0,471802	4,999847
0,268000	0,439606	4,263153
0,269000	0,464172	2,751923
0,270000	0,449677	3,901062
0,271000	0,457611	4,047394
0,272000	0,458679	4,999847
0,273000	0,450897	4,999847
0,274000	0,467224	4,999847
0,275000	0,445404	4,999847
0,276000	0,475616	4,999847
0,277000	0,439453	4,999847
0,278000	0,484467	4,999847
0,279000	0,435486	4,425507
0,280000	0,491486	3,333740
0,281000	0,439911	3,987732
0,282000	0,481873	4,999847
0,283000	0,451813	4,508820
0,284000	0,473633	4,999847
0,285000	0,463104	4,999847
0,286000	0,466919	4,999847
0,287000	0,474396	4,999847
0,288000	0,444031	4,999847
0,289000	0,473785	3,706665
0,290000	0,449371	3,589478
0,291000	0,492096	3,600616
0,292000	0,448456	4,999847
0,293000	0,514679	4,999847
0,294000	0,458527	4,999847
0,295000	0,521851	4,999847
0,296000	0,468903	4,999847
0,297000	0,511017	4,999847
0,298000	0,482483	4,999847
0,299000	0,501099	4,350586
0,300000	0,494995	4,503174
0,301000	0,492859	3,527832
0,302000	0,507050	4,345245
0,303000	0,484619	4,999847
0,304000	0,518036	4,999847
0,305000	0,476990	4,999847
0,306000	0,528107	4,999847
0,307000	0,470734	4,999847
0,308000	0,538177	4,878082
0,309000	0,467224	2,804871
0,310000	0,531921	2,798309
0,311000	0,482788	4,211121
0,312000	0,520782	4,999847
0,313000	0,497284	4,999847
0,314000	0,510101	4,999847
0,315000	0,510864	4,999847
0,316000	0,500793	4,999847
0,317000	0,523529	4,999847
0,318000	0,492706	4,999847
0,319000	0,535583	4,198761
0,320000	0,484467	3,329926
0,321000	0,546417	4,999847
0,322000	0,477753	4,999847
0,323000	0,556030	4,999847
0,324000	0,463409	4,999847
0,325000	0,530090	4,999847
0,326000	0,491943	4,999847
0,327000	0,527954	4,999847
0,328000	0,512390	4,781342
0,329000	0,519104	2,963409
0,330000	0,527649	2,391205
0,331000	0,495300	4,999847
0,332000	0,526123	4,999847
0,333000	0,493774	4,999847
0,334000	0,550690	4,999847
0,335000	0,491180	4,999847
0,336000	0,564880	4,999847
0,337000	0,484467	4,999847
0,338000	0,567932	4,999847
0,339000	0,496979	4,389648
0,340000	0,553589	3,899078
0,341000	0,514679	2,652283
0,342000	0,540771	3,454285
0,343000	0,531006	4,999847
0,344000	0,527954	4,999847
0,345000	0,545502	4,999847
0,346000	0,518036	4,999847
0,347000	0,560150	4,999847
0,348000	0,508575	4,999847
0,349000	0,572968	3,702240
0,350000	0,500031	2,537994
0,351000	0,585022	4,274139
0,352000	0,494232	4,598083
0,353000	0,579071	4,999847
0,354000	0,513763	4,999847
0,355000	0,564117	4,999847
0,356000	0,532990	4,999847
0,357000	0,550385	4,999847
0,358000	0,549164	4,999847
0,359000	0,538635	3,151093
0,360000	0,548859	4,040222
0,361000	0,513916	3,758240
0,362000	0,573425	4,744110
0,363000	0,514832	4,999847
0,364000	0,591125	4,999847
0,365000	0,507965	4,999847
0,366000	0,604858	4,999847
0,367000	0,511627	4,999847
0,368000	0,589752	4,129181
0,369000	0,532227	3,206482
0,370000	0,574188	4,066925
0,371000	0,550995	3,692017
0,372000	0,560455	4,999847
0,373000	0,568542	4,999847
0,374000	0,548096	4,999847
0,375000	0,584717	4,999847
0,376000	0,536957	4,999847
0,377000	0,599060	4,999847
0,378000	0,526886	4,999847
0,379000	0,613556	4,400940
0,380000	0,518494	3,862305
0,381000	0,618439	4,224854
0,382000	0,531311	4,673767
0,383000	0,600891	4,999847
0,384000	0,552216	4,999847
0,385000	0,585175	4,999847
0,386000	0,571899	4,999847
0,387000	0,571594	4,999847
0,388000	0,589752	4,999847
0,389000	0,558929	3,281708
0,390000	0,606232	2,770538
0,391000	0,548096	4,812164
0,392000	0,621185	4,973602
0,393000	0,538025	4,999847
0,394000	0,635681	4,999847
0,395000	0,530090	4,999847
0,396000	0,630188	4,999847
0,397000	0,553131	4,999847
0,398000	0,612946	4,999847
0,399000	0,574646	4,193573
0,400000	0,597382	4,999847
0,401000	0,594025	2,194824
0,402000	0,583344	4,528809
0,403000	0,612183	4,999847
0,404000	0,570679	4,999847
0,405000	0,628967	4,999847
0,406000	0,560608	4,999847
0,407000	0,644379	4,999847
0,408000	0,550995	4,935303
0,409000	0,658417	3,699493
0,410000	0,552521	4,999847
0,411000	0,643311	3,187256
0,412000	0,576172	4,999847
0,413000	0,625763	4,999847
0,414000	0,597839	4,999847
0,415000	0,610352	4,999847
0,416000	0,617828	4,999847
0,417000	0,597382	4,999847
0,418000	0,636292	4,999847
0,419000	0,585022	3,741913
0,420000	0,653076	3,579254
0,421000	0,574799	2,232513
0,422000	0,668030	4,547729
0,423000	0,565033	4,999847
0,424000	0,675964	4,999847
0,425000	0,577850	4,999847
0,426000	0,656738	4,999847
0,427000	0,601501	4,999847
0,428000	0,639954	4,999847
0,429000	0,623016	3,690796
0,430000	0,625153	3,329620
0,431000	0,643158	3,868866
0,432000	0,612183	4,999847
0,433000	0,661163	4,999847
0,434000	0,569305	4,999847
0,435000	0,664215	4,999847
0,436000	0,583496	4,999847
0,437000	0,690308	4,999847
0,438000	0,579529	4,999847
0,439000	0,689392	4,188690
0,440000	0,604553	4,704285
0,441000	0,671234	3,232422
0,442000	0,628357	4,999847
0,443000	0,655060	4,999847
0,444000	0,649567	4,999847
0,445000	0,641022	4,999847
0,446000	0,669403	4,999847
0,447000	0,628357	4,999847
0,448000	0,687256	4,475555
0,449000	0,616760	3,701019
0,450000	0,704041	4,205322
0,451000	0,607452	4,547729
0,452000	0,719147	4,999847
0,453000	0,606842	4,999847
0,454000	0,704651	4,999847
0,455000	0,632629	4,999847
0,456000	0,686798	4,999847
0,457000	0,655670	4,999847
0,458000	0,670929	4,761963
0,459000	0,676880	4,676361
0,460000	0,657349	3,414764
0,461000	0,696411	3,409576
0,462000	0,644684	4,999847
0,463000	0,713654	4,999847
0,464000	0,634308	4,999847
0,465000	0,729980	4,999847
0,466000	0,625000	4,999847
0,467000	0,739288	4,999847
0,468000	0,635529	4,084320
0,469000	0,719910	3,866119
0,470000	0,660858	3,952789
0,471000	0,702667	4,969330
0,472000	0,683746	4,999847
0,473000	0,688019	4,999847
0,474000	0,704346	4,999847
0,475000	0,674591	4,999847
0,476000	0,722809	4,999847
0,477000	0,662384	4,999847
0,478000	0,740356	4,825897
0,479000	0,652771	3,350525
0,480000	0,756531	2,653351
0,481000	0,643158	4,653320
0,482000	0,754547	4,073792
0,483000	0,664673	4,999847
0,484000	0,735626	4,999847
0,485000	0,689545	4,999847
0,486000	0,719147	4,999847
0,487000	0,711670	4,999847
0,488000	0,704346	4,999847
0,489000	0,731506	3,809967
0,490000	0,691376	3,759766
0,491000	0,749969	2,935486
0,492000	0,654602	4,999847
0,493000	0,739594	4,999847
0,494000	0,648193	4,999847
0,495000	0,756683	4,999847
0,496000	0,648346	4,999847
0,497000	0,754547	4,999847
0,498000	0,680237	4,432068
0,499000	0,736847	4,379883
0,500000	0,704041	3,659515
0,501000	0,721588	3,705597
0,502000	0,724945	4,999847
0,503000	0,722504	4,999847
0,504000	0,759430	4,999847
0,505000	0,709381	4,999847
0,506000	0,776825	4,999847
0,507000	0,682526	4,999847
0,508000	0,777130	4,052734
0,509000	0,673676	3,832703
0,510000	0,788116	3,606415
0,511000	0,678406	4,999847
0,512000	0,771484	4,999847
0,513000	0,722656	4,999847
0,514000	0,767517	4,999847
0,515000	0,745544	4,999847
0,516000	0,751801	4,999847
0,517000	0,766144	4,999847
0,518000	0,738068	4,989319
0,519000	0,785675	3,791504
0,520000	0,726166	2,796173
0,521000	0,803528	3,543701
0,522000	0,692596	4,925537
0,523000	0,800781	4,999847
0,524000	0,690460	4,999847
0,525000	0,819702	4,999847
0,526000	0,725403	4,999847
0,527000	0,800476	4,999847
0,528000	0,750427	4,867706
0,529000	0,783539	4,254303
0,530000	0,744171	3,403320
0,531000	0,740204	3,480072
0,532000	0,764160	4,999847
0,533000	0,727386	4,999847
0,534000	0,782623	4,999847
0,535000	0,717163	4,999847
0,536000	0,775604	4,999847
0,537000	0,670166	4,999847
0,538000	0,793152	4,999847
0,539000	0,699463	3,734589
0,540000	0,810089	2,875366
0,541000	0,734711	3,121643
0,542000	0,797729	4,428558
0,543000	0,760803	4,999847
0,544000	0,782623	4,999847
0,545000	0,781250	4,999847
0,546000	0,773010	4,999847
0,547000	0,802002	4,999847
0,548000	0,750732	4,999847
0,549000	0,814972	4,195251
0,550000	0,741577	2,838287
0,551000	0,832977	4,999847
0,552000	0,730591	4,999847
0,553000	0,847168	4,999847
0,554000	0,736084	4,999847
0,555000	0,828857	4,999847
0,556000	0,761871	4,999847
0,557000	0,813446	4,999847
0,558000	0,784912	4,999847
0,559000	0,796967	4,484711
0,560000	0,741882	3,547516
0,561000	0,734253	4,999847
0,562000	0,742798	4,999847
0,563000	0,744781	4,999847
0,564000	0,854340	4,999847
0,565000	0,743408	4,999847
0,566000	0,826263	4,999847
0,567000	0,762177	4,999847
0,568000	0,807495	4,999847
0,569000	0,782776	4,197235
0,570000	0,791473	3,455658
0,571000	0,802307	3,811798
0,572000	0,777130	4,999847
0,573000	0,820770	4,999847
0,574000	0,763855	4,999847
0,575000	0,839081	4,999847
0,576000	0,752563	4,999847
0,577000	0,855713	4,999847
0,578000	0,742035	4,999847
0,579000	0,854340	4,296417
0,580000	0,762024	4,401245
0,581000	0,835876	2,630920
0,582000	0,784454	4,999847
0,583000	0,819244	4,999847
0,584000	0,805511	4,999847
0,585000	0,803833	4,999847
0,586000	0,825806	4,999847
0,587000	0,789185	4,999847
0,588000	0,844421	4,708099
0,589000	0,775604	3,486938
0,590000	0,861359	3,574066
0,591000	0,763550	3,969421
0,592000	0,874939	4,999847
0,593000	0,758667	4,999847
0,594000	0,859528	4,999847
0,595000	0,782471	4,999847
0,596000	0,840912	4,999847
0,597000	0,804596	4,999847
0,598000	0,824280	4,999847
0,599000	0,825348	4,233704
0,600000	0,809021	4,976349
0,601000	0,845184	4,450989
0,602000	0,794525	4,100800
0,603000	0,862885	4,999847
0,604000	0,781097	4,999847
0,605000	0,876617	4,999847
0,606000	0,769196	4,999847
0,607000	0,703278	4,999847
0,608000	0,674133	4,999847
0,609000	0,660095	3,480988
0,610000	0,653992	4,034424
0,611000	0,651245	4,157715
0,612000	0,649719	4,999847
0,613000	0,648956	4,999847
0,614000	0,648651	4,999847
0,615000	0,648499	4,999847
0,616000	0,648346	4,999847
0,617000	0,648041	4,999847
0,618000	0,648193	4,999847
0,619000	0,648193	3,357391
0,620000	0,648346	3,177643
0,621000	0,648193	3,205566
0,622000	0,647736	4,794464
0,623000	0,648041	4,999847
0,624000	0,648346	4,999847
0,625000	0,648041	4,999847
0,626000	0,648193	4,999847
0,627000	0,648041	4,999847
0,628000	0,553131	4,999847
0,629000	0,465851	4,159088
0,630000	0,434875	2,627106
0,631000	0,409851	4,999847
0,632000	0,412903	4,818726
0,633000	0,397034	4,999847
0,634000	0,410309	4,999847
0,635000	0,393982	4,999847
0,636000	0,410461	4,999847
0,637000	0,396881	4,999847
0,638000	0,403137	4,802704
0,639000	0,381012	3,925323
0,640000	0,397339	2,972870
0,641000	0,400848	4,470062
0,642000	0,402527	4,079437
0,643000	0,408478	4,999847
0,644000	0,402374	4,999847
0,645000	0,413055	4,999847
0,646000	0,401306	4,999847
0,647000	0,417938	4,999847
0,648000	0,399628	4,484253
0,649000	0,421753	3,356018
0,650000	0,399017	4,469452
0,651000	0,420990	4,508057
0,652000	0,404816	4,887390
0,653000	0,417786	4,999847
0,654000	0,410614	4,999847
0,655000	0,415192	4,999847
0,656000	0,416107	4,999847
0,657000	0,412750	4,999847
0,658000	0,421295	4,999847
0,659000	0,410767	3,433228
0,660000	0,426331	2,967682
0,661000	0,408173	4,476776
0,662000	0,431061	4,297791
0,663000	0,406036	4,999847
0,664000	0,435638	4,999847
0,665000	0,407867	4,999847
0,666000	0,431671	4,999847
0,667000	0,415039	4,999847
0,668000	0,428009	4,504852
0,669000	0,421906	3,439636
0,670000	0,424652	4,812775
0,671000	0,427856	3,527679
0,672000	0,420990	4,999847
0,673000	0,434418	4,999847
0,674000	0,418396	4,999847
0,675000	0,440979	4,999847
0,676000	0,415649	4,999847
0,677000	0,446930	4,999847
0,678000	0,413208	4,999847
0,679000	0,449371	3,944855
0,680000	0,419006	4,801788
0,681000	0,443878	3,409576
0,682000	0,427399	4,104767
0,683000	0,439911	4,999847
0,684000	0,436554	4,999847
0,685000	0,443268	4,999847
0,686000	0,450897	4,999847
0,687000	0,441132	4,999847
0,688000	0,468445	4,999847
0,689000	0,443726	3,586273
0,690000	0,475464	3,130341
0,691000	0,440216	4,999847
0,692000	0,481415	4,999847
0,693000	0,436859	4,999847
0,694000	0,479584	4,999847
0,695000	0,447540	4,999847
0,696000	0,472565	4,999847
0,697000	0,457001	4,999847
0,698000	0,466461	4,782715
0,699000	0,466614	3,899994
0,700000	0,461121	4,526062
0,701000	0,470428	2,581177
0,702000	0,444946	4,514313
0,703000	0,478058	4,999847
0,704000	0,448914	4,999847
0,705000	0,490112	4,999847
0,706000	0,445862	4,999847
0,707000	0,498199	4,999847
0,708000	0,448151	4,217834
0,709000	0,491028	3,694000
0,710000	0,455780	4,425049
0,711000	0,481262	4,047852
0,712000	0,469818	4,999847
0,713000	0,475769	4,999847
0,714000	0,480499	4,999847
0,715000	0,469055	4,999847
0,716000	0,490265	4,999847
0,717000	0,463104	4,999847
0,718000	0,499115	4,751892
0,719000	0,458069	4,325562
0,720000	0,507965	3,953705
0,721000	0,453033	3,407440
0,722000	0,511475	4,979248
0,723000	0,460815	4,999847
0,724000	0,502167	4,999847
0,725000	0,473328	4,999847
0,726000	0,493317	4,999847
0,727000	0,484924	4,999847
0,728000	0,484924	3,950500
0,729000	0,495911	4,116211
0,730000	0,477600	4,973145
0,731000	0,506134	3,673096
0,732000	0,470123	4,999847
0,733000	0,515594	4,999847
0,734000	0,464630	4,999847
0,735000	0,525055	4,999847
0,736000	0,459442	4,999847
0,737000	0,522919	4,999847
0,738000	0,473785	4,999847
0,739000	0,511932	4,080505
0,740000	0,487823	3,606415
0,741000	0,471344	3,986206
0,742000	0,468292	4,720917
0,743000	0,479279	4,999847
0,744000	0,505981	4,999847
0,745000	0,482788	4,999847
0,746000	0,522156	4,999847
0,747000	0,477753	4,999847
0,748000	0,533295	4,381256
0,749000	0,471497	4,417267
0,750000	0,543671	4,484100
0,751000	0,472565	3,299408
0,752000	0,533905	4,999847
0,753000	0,488434	4,999847
0,754000	0,521851	4,999847
0,755000	0,503082	4,999847
0,756000	0,512085	4,999847
0,757000	0,516663	4,999847
0,758000	0,501862	4,999847
0,759000	0,529327	4,864655
0,760000	0,494080	2,934418
0,761000	0,540924	4,945984
0,762000	0,485535	4,046021
0,763000	0,551910	4,999847
0,764000	0,478668	4,999847
0,765000	0,558319	4,999847
0,766000	0,487213	4,999847
0,767000	0,544434	4,999847
0,768000	0,503693	4,779663
0,769000	0,531616	3,995056
0,770000	0,519714	2,929535
0,771000	0,520477	4,999847
0,772000	0,533752	4,999847
0,773000	0,510559	4,999847
0,774000	0,547333	4,999847
0,775000	0,501556	4,999847
0,776000	0,559845	4,999847
0,777000	0,493317	4,999847
0,778000	0,571442	4,701538
0,779000	0,485687	4,206238
0,780000	0,568848	2,371063
0,781000	0,503387	4,611511
0,782000	0,554047	4,999847
0,783000	0,520477	4,539185
0,784000	0,541229	4,999847
0,785000	0,536957	4,999847
0,786000	0,529633	4,999847
0,787000	0,551758	4,999847
0,788000	0,518646	4,118958
0,789000	0,565796	3,370972
0,790000	0,509338	4,315491
0,791000	0,579071	3,308411
0,792000	0,501404	4,999847
0,793000	0,591278	4,999847
0,794000	0,500336	4,999847
0,795000	0,579681	4,999847
0,796000	0,520325	4,999847
0,797000	0,565033	4,999847
0,798000	0,538788	4,999847
0,799000	0,551147	4,415131
0,800000	0,555725	3,233643
0,801000	0,539246	3,807068
0,802000	0,571136	4,999847
0,803000	0,528259	4,999847
0,804000	0,585785	4,999847
0,805000	0,518494	4,999847
0,806000	0,598907	4,999847
0,807000	0,509644	4,999847
0,808000	0,607452	4,999847
0,809000	0,518188	3,901520
0,810000	0,590210	3,601837
0,811000	0,538635	3,284607
0,812000	0,574493	4,999847
0,813000	0,557556	4,999847
0,814000	0,561218	4,999847
0,815000	0,575256	4,999847
0,816000	0,548706	4,999847
0,817000	0,591736	4,999847
0,818000	0,537720	4,999847
0,819000	0,606232	4,717712
0,820000	0,528717	3,147125
0,821000	0,620270	4,999847
0,822000	0,519409	4,999847
0,823000	0,618896	4,687500
0,824000	0,538483	4,999847
0,825000	0,601959	4,999847
0,826000	0,559998	4,999847
0,827000	0,586395	4,999847
0,828000	0,578918	4,857788
0,829000	0,572510	3,164673
0,830000	0,596771	2,548676
0,831000	0,560455	4,999847
0,832000	0,613251	4,760437
0,833000	0,549316	4,999847
0,834000	0,628510	4,999847
0,835000	0,539703	4,999847
0,836000	0,642700	4,999847
0,837000	0,537415	4,999847
0,838000	0,631256	4,999847
0,839000	0,560608	4,100647
0,840000	0,613861	2,956848
0,841000	0,582123	4,689178
0,842000	0,598145	4,999847
0,843000	0,583344	4,705811
0,844000	0,565796	4,999847
0,845000	0,610962	4,999847
0,846000	0,569153	4,999847
0,847000	0,634460	4,999847
0,848000	0,561218	4,999847
0,849000	0,651093	4,046478
0,850000	0,552063	2,336273
0,851000	0,662842	4,844208
0,852000	0,560913	4,999847
0,853000	0,643768	4,999847
0,854000	0,584106	4,999847
0,855000	0,626984	4,999847
0,856000	0,605621	4,999847
0,857000	0,611572	4,999847
0,858000	0,625610	4,999847
0,859000	0,598907	4,408569
0,860000	0,643921	2,899933
0,861000	0,587006	4,485626
0,862000	0,660553	4,181824
0,863000	0,576477	4,999847
0,864000	0,675507	4,999847
0,865000	0,567780	4,999847
0,866000	0,676422	4,999847
0,867000	0,586700	4,999847
0,868000	0,657654	4,910278
0,869000	0,610046	3,315735
0,870000	0,641785	3,480072
0,871000	0,631561	3,850098
0,872000	0,626831	4,999847
0,873000	0,651093	4,999847
0,874000	0,614014	4,999847
0,875000	0,669403	4,999847
0,876000	0,602417	4,999847
0,877000	0,685577	4,999847
0,878000	0,592957	4,999847
0,879000	0,701294	3,939362
0,880000	0,588379	3,851624
0,881000	0,690765	4,536285
0,882000	0,613403	4,342346
0,883000	0,672760	4,897308
0,884000	0,637054	4,999847
0,885000	0,657349	4,999847
0,886000	0,658264	4,999847
0,887000	0,643005	4,999847
0,888000	0,677490	4,728241
0,889000	0,630188	3,306427
0,890000	0,695496	3,170166
0,891000	0,619659	4,999847
0,892000	0,711975	4,999847
0,893000	0,610199	4,999847
0,894000	0,725098	4,999847
0,895000	0,616608	4,999847
0,896000	0,705872	4,999847
0,897000	0,641937	4,999847
0,898000	0,682983	4,999847
0,899000	0,647736	4,020691
0,900000	0,661469	4,084625
0,901000	0,680237	3,706970
0,902000	0,657043	3,987885
0,903000	0,703278	4,999847
0,904000	0,646973	4,999847
0,905000	0,721588	4,999847
0,906000	0,637360	4,999847
0,907000	0,737915	4,999847
0,908000	0,628510	4,766083
0,909000	0,740814	3,150330
0,910000	0,645447	4,039764
0,911000	0,721588	3,560486
0,912000	0,670319	4,904022
0,913000	0,704956	4,999847
0,914000	0,691833	4,999847
0,915000	0,690002	4,999847
0,916000	0,712891	4,999847
0,917000	0,677185	4,999847
0,918000	0,731812	4,999847
0,919000	0,665741	3,323059
0,920000	0,748444	4,963226
0,921000	0,655518	4,014587
0,922000	0,764465	4,819641
0,923000	0,648651	4,999847
0,924000	0,756073	4,999847
0,925000	0,675201	4,999847
0,926000	0,737915	4,999847
0,927000	0,698700	4,999847
0,928000	0,721283	4,520416
0,929000	0,720673	3,692627
0,930000	0,690002	3,115540
0,931000	0,722504	4,435577
0,932000	0,675964	4,999847
0,933000	0,736847	4,999847
0,934000	0,659943	4,999847
0,935000	0,749054	4,999847
0,936000	0,650330	4,999847
0,937000	0,765686	4,999847
0,938000	0,656128	4,999847
0,939000	0,772095	3,861389
0,940000	0,682068	3,647766
0,941000	0,725555	3,587952
0,942000	0,700073	3,821716
0,943000	0,710297	4,999847
0,944000	0,720367	4,999847
0,945000	0,697327	4,999847
0,946000	0,706940	4,999847
0,947000	0,671539	4,999847
0,948000	0,750427	4,177399
0,949000	0,673523	4,029541
0,950000	0,773163	3,054504
0,951000	0,677795	4,119720
0,952000	0,790405	4,999847
0,953000	0,695343	4,999847
0,954000	0,774689	4,999847
0,955000	0,732269	4,999847
0,956000	0,750885	4,999847
0,957000	0,737762	4,999847
0,958000	0,736694	4,999847
0,959000	0,758362	4,009094
0,960000	0,709991	3,615265
0,961000	0,762634	4,274902
0,962000	0,706024	4,999847
0,963000	0,788422	4,999847
0,964000	0,700531	4,999847
0,965000	0,805511	4,999847
0,966000	0,692596	4,999847
0,967000	0,799255	4,999847
0,968000	0,717468	4,155121
0,969000	0,781250	4,037933
0,970000	0,742187	4,183350
0,971000	0,762939	3,434906
0,972000	0,762329	4,999847
0,973000	0,749207	4,999847
0,974000	0,781555	4,999847
0,975000	0,736694	4,999847
0,976000	0,798340	4,999847
0,977000	0,726318	4,999847
0,978000	0,814972	4,999847
0,979000	0,717163	4,610291
0,980000	0,830536	4,062500
0,981000	0,718231	4,145050
0,982000	0,814667	4,999847
0,983000	0,743713	4,999847
0,984000	0,795746	4,999847
0,985000	0,765686	4,999847
0,986000	0,780792	4,999847
0,987000	0,787659	4,999847
0,988000	0,767212	4,877167
0,989000	0,805817	4,374084
0,990000	0,753021	3,377838
0,991000	0,824585	3,274841
0,992000	0,742798	4,999847
0,993000	0,841217	4,999847
0,994000	0,732574	4,999847
0,995000	0,849609	4,999847
0,996000	0,744934	4,999847
0,997000	0,830078	4,999847
0,998000	0,736847	4,714661
0,999000	0,752411	4,093628

