LabVIEW Measurement	
Writer_Version	2
Reader_Version	2
Separator	Tab
Decimal_Separator	,
Multi_Headings	Yes
X_Columns	One
Time_Pref	Absolute
Operator	d.nicolai
Date	2023/11/09
Time	16:04:05,6565121999996605588
***End_of_Header***	
	
Channels	2		
Samples	1000	1000	
Date	2023/11/09	2023/11/09	
Time	16:04:38,683512999999646578	16:04:38,683512999999646578	
Y_Unit_Label	Volts	Volts	
X_Dimension	Time	Time	
X0	0,0000000000000000E+0	0,0000000000000000E+0	
Delta_X	0,001000	0,001000	
***End_of_Header***			
X_Value	powebox	triggerbox	Comment
0,000000	0,659790	1,090393
0,001000	0,668488	4,999847
0,002000	0,696259	2,853394
0,003000	0,668640	4,999847
0,004000	0,720062	4,999847
0,005000	0,659943	4,999847
0,006000	0,736694	4,999847
0,007000	0,650024	4,999847
0,008000	0,751801	4,733276
0,009000	0,641327	2,682190
0,010000	0,749512	3,565521
0,011000	0,663757	4,999847
0,012000	0,730743	4,999847
0,013000	0,687408	4,999847
0,014000	0,714417	4,999847
0,015000	0,708466	4,999847
0,016000	0,699921	4,999847
0,017000	0,727692	4,999847
0,018000	0,687408	4,824829
0,019000	0,745087	3,748169
0,020000	0,676422	3,614502
0,021000	0,760803	3,796692
0,022000	0,666504	2,574921
0,023000	0,775909	4,999847
0,024000	0,664978	4,999847
0,025000	0,762024	4,999847
0,026000	0,689850	4,999847
0,027000	0,744324	4,999847
0,028000	0,712280	4,865570
0,029000	0,729065	3,588715
0,030000	0,733032	2,485352
0,031000	0,715027	3,603210
0,032000	0,752258	4,999847
0,033000	0,702820	4,999847
0,034000	0,768890	4,999847
0,035000	0,691833	4,999847
0,036000	0,784607	4,999847
0,037000	0,682373	4,999847
0,038000	0,794525	4,999847
0,039000	0,691833	3,994293
0,040000	0,775757	2,799835
0,041000	0,715790	4,999847
0,042000	0,758209	4,352417
0,043000	0,738068	4,999847
0,044000	0,743256	4,999847
0,045000	0,758057	4,999847
0,046000	0,729828	4,999847
0,047000	0,776215	4,999847
0,048000	0,718231	4,999847
0,049000	0,792999	3,762970
0,050000	0,708160	4,046936
0,051000	0,808411	4,344788
0,052000	0,698700	4,399414
0,053000	0,808563	4,999847
0,054000	0,718689	4,999847
0,055000	0,790253	4,999847
0,056000	0,741882	4,999847
0,057000	0,774231	4,999847
0,058000	0,763245	4,917297
0,059000	0,759277	4,193573
0,060000	0,783386	3,201447
0,061000	0,746307	4,440002
0,062000	0,800629	4,116821
0,063000	0,734863	4,999847
0,064000	0,818024	4,999847
0,065000	0,724335	4,999847
0,066000	0,834045	4,999847
0,067000	0,720062	4,999847
0,068000	0,823517	4,999847
0,069000	0,745392	3,729858
0,070000	0,805969	3,921661
0,071000	0,768127	3,440094
0,072000	0,790558	4,766388
0,073000	0,788879	4,999847
0,074000	0,776825	4,999847
0,075000	0,808716	4,999847
0,076000	0,764313	4,999847
0,077000	0,827637	4,999847
0,078000	0,752716	4,872437
0,079000	0,845795	4,459686
0,080000	0,743256	3,663940
0,081000	0,862427	3,007965
0,082000	0,751038	4,211426
0,083000	0,844421	4,999847
0,084000	0,774384	4,999847
0,085000	0,825348	4,999847
0,086000	0,795135	4,999847
0,087000	0,809784	4,999847
0,088000	0,815735	4,186707
0,089000	0,793152	3,250885
0,090000	0,834808	4,784851
0,091000	0,780029	3,252716
0,092000	0,853729	3,959351
0,093000	0,768738	4,999847
0,094000	0,869904	4,999847
0,095000	0,756378	4,999847
0,096000	0,872345	4,999847
0,097000	0,773621	4,999847
0,098000	0,852661	4,999847
0,099000	0,796356	3,771515
0,100000	0,835724	2,145538
0,101000	0,818481	4,941254
0,102000	0,811157	3,740845
0,103000	0,825043	4,999847
0,104000	0,799713	4,999847
0,105000	0,855255	4,999847
0,106000	0,788879	4,999847
0,107000	0,873566	4,999847
0,108000	0,777130	4,265442
0,109000	0,886688	3,093109
0,110000	0,769653	2,759705
0,111000	0,875549	4,339752
0,112000	0,792847	4,841003
0,113000	0,858765	4,999847
0,114000	0,816650	4,999847
0,115000	0,839996	4,999847
0,116000	0,837860	4,999847
0,117000	0,823364	4,999847
0,118000	0,730286	4,999847
0,119000	0,687256	4,790344
0,120000	0,667725	3,168182
0,121000	0,658569	3,680267
0,122000	0,654755	4,132233
0,123000	0,652618	4,999847
0,124000	0,651398	4,999847
0,125000	0,650635	4,999847
0,126000	0,650787	4,999847
0,127000	0,650330	4,999847
0,128000	0,650024	4,999847
0,129000	0,649872	3,348083
0,130000	0,650024	4,093018
0,131000	0,650177	4,999847
0,132000	0,650330	4,999847
0,133000	0,649872	4,999847
0,134000	0,650330	4,999847
0,135000	0,650635	4,999847
0,136000	0,650177	4,999847
0,137000	0,650330	4,999847
0,138000	0,650482	4,999847
0,139000	0,612183	4,047089
0,140000	0,522156	3,236237
0,141000	0,478668	2,630005
0,142000	0,461884	4,148102
0,143000	0,451202	4,999847
0,144000	0,449677	4,999847
0,145000	0,446930	4,999847
0,146000	0,448608	4,999847
0,147000	0,451660	4,999847
0,148000	0,451202	4,256134
0,149000	0,453186	3,508911
0,150000	0,452118	3,273163
0,151000	0,458984	3,716888
0,152000	0,457306	4,999847
0,153000	0,460205	4,999847
0,154000	0,458832	4,999847
0,155000	0,461273	4,999847
0,156000	0,457916	4,999847
0,157000	0,457916	4,999847
0,158000	0,460968	4,999847
0,159000	0,467072	4,655304
0,160000	0,468903	3,872070
0,161000	0,467377	2,663422
0,162000	0,473022	3,141479
0,163000	0,474243	4,938660
0,164000	0,478210	4,999847
0,165000	0,481262	4,999847
0,166000	0,478516	4,999847
0,167000	0,465851	4,999847
0,168000	0,475006	4,999847
0,169000	0,493469	3,463440
0,170000	0,503998	3,572388
0,171000	0,510559	4,860077
0,172000	0,508270	4,999847
0,173000	0,506744	4,999847
0,174000	0,512238	4,999847
0,175000	0,516205	4,999847
0,176000	0,528870	4,999847
0,177000	0,535889	4,999847
0,178000	0,545349	4,999847
0,179000	0,551453	4,765167
0,180000	0,558167	1,914673
0,181000	0,558472	4,561615
0,182000	0,564880	4,511871
0,183000	0,566254	4,999847
0,184000	0,569000	4,999847
0,185000	0,569458	4,999847
0,186000	0,572815	4,999847
0,187000	0,570831	4,906006
0,188000	0,574646	4,451599
0,189000	0,578461	4,127197
0,190000	0,578308	2,672272
0,191000	0,581970	4,531097
0,192000	0,581055	4,999847
0,193000	0,577698	4,999847
0,194000	0,582581	4,999847
0,195000	0,585480	4,999847
0,196000	0,587311	4,999847
0,197000	0,587616	4,999847
0,198000	0,589447	4,999847
0,199000	0,589142	4,999847
0,200000	0,590057	3,536224
0,201000	0,590057	4,999847
0,202000	0,591125	3,070831
0,203000	0,591736	4,999847
0,204000	0,591888	4,999847
0,205000	0,576019	4,999847
0,206000	0,583649	4,999847
0,207000	0,590057	4,999847
0,208000	0,592499	4,999847
0,209000	0,596924	3,367615
0,210000	0,599976	2,407684
0,211000	0,601959	4,743652
0,212000	0,601959	4,999847
0,213000	0,602417	4,999847
0,214000	0,600281	4,999847
0,215000	0,601349	4,999847
0,216000	0,598755	4,999847
0,217000	0,598602	4,999847
0,218000	0,596771	4,999847
0,219000	0,597382	4,577179
0,220000	0,594482	4,030457
0,221000	0,592651	3,607635
0,222000	0,593872	4,398651
0,223000	0,594940	4,999847
0,224000	0,592346	4,999847
0,225000	0,593567	4,999847
0,226000	0,595398	4,999847
0,227000	0,592346	4,824219
0,228000	0,594177	4,743652
0,229000	0,596771	3,663177
0,230000	0,599670	3,000946
0,231000	0,601044	4,334106
0,232000	0,598145	4,999847
0,233000	0,599060	4,999847
0,234000	0,602112	4,999847
0,235000	0,607147	4,999847
0,236000	0,606995	4,999847
0,237000	0,607147	4,999847
0,238000	0,607147	4,999847
0,239000	0,604706	4,877777
0,240000	0,608368	3,195343
0,241000	0,606842	4,999847
0,242000	0,604401	3,466187
0,243000	0,602417	4,999847
0,244000	0,602570	4,999847
0,245000	0,604248	4,999847
0,246000	0,589600	4,999847
0,247000	0,595856	4,999847
0,248000	0,604858	4,999847
0,249000	0,606079	4,288025
0,250000	0,611725	3,791809
0,251000	0,606995	4,276428
0,252000	0,605927	3,949280
0,253000	0,602570	4,999847
0,254000	0,611267	4,999847
0,255000	0,605621	4,999847
0,256000	0,607147	4,999847
0,257000	0,607452	4,999847
0,258000	0,610809	4,999847
0,259000	0,606842	4,150543
0,260000	0,609589	3,685150
0,261000	0,608521	4,143677
0,262000	0,610504	4,299622
0,263000	0,610962	4,896240
0,264000	0,602570	4,999847
0,265000	0,607605	4,999847
0,266000	0,605469	4,999847
0,267000	0,608826	4,999847
0,268000	0,601654	4,896698
0,269000	0,607605	2,966919
0,270000	0,606384	2,338715
0,271000	0,609589	3,928070
0,272000	0,605011	4,999847
0,273000	0,605011	4,999847
0,274000	0,603943	4,999847
0,275000	0,597839	4,999847
0,276000	0,601654	4,999847
0,277000	0,592194	4,999847
0,278000	0,604401	4,999847
0,279000	0,605164	4,595032
0,280000	0,619049	3,379059
0,281000	0,606079	4,884186
0,282000	0,619659	3,440247
0,283000	0,605011	4,999847
0,284000	0,616913	4,999847
0,285000	0,613556	4,999847
0,286000	0,625610	4,999847
0,287000	0,622406	4,999847
0,288000	0,621490	4,584961
0,289000	0,623779	3,438873
0,290000	0,614319	3,944092
0,291000	0,623932	4,868317
0,292000	0,619049	4,999847
0,293000	0,631561	4,999847
0,294000	0,610199	4,999847
0,295000	0,632782	4,999847
0,296000	0,607758	4,999847
0,297000	0,630646	4,999847
0,298000	0,612793	4,999847
0,299000	0,628357	4,316711
0,300000	0,618591	2,901917
0,301000	0,625916	4,620361
0,302000	0,624084	3,426056
0,303000	0,616302	4,999847
0,304000	0,624084	4,999847
0,305000	0,620117	4,999847
0,306000	0,633850	4,999847
0,307000	0,609894	4,999847
0,308000	0,629730	4,631500
0,309000	0,621948	3,482208
0,310000	0,646515	4,487762
0,311000	0,620575	4,187775
0,312000	0,644684	4,549408
0,313000	0,627136	4,999847
0,314000	0,643005	4,999847
0,315000	0,633392	4,999847
0,316000	0,632629	4,999847
0,317000	0,634003	4,999847
0,318000	0,634155	4,999847
0,319000	0,642242	4,469604
0,320000	0,630035	3,710937
0,321000	0,647583	4,220581
0,322000	0,618134	3,054810
0,323000	0,649567	4,999847
0,324000	0,610657	4,999847
0,325000	0,652771	4,999847
0,326000	0,610809	4,999847
0,327000	0,645447	4,999847
0,328000	0,622406	4,564209
0,329000	0,638885	3,650055
0,330000	0,633240	3,878174
0,331000	0,636444	3,367615
0,332000	0,643158	4,003448
0,333000	0,620117	4,999847
0,334000	0,639191	4,999847
0,335000	0,603180	4,999847
0,336000	0,640411	4,999847
0,337000	0,612946	4,999847
0,338000	0,661621	4,999847
0,339000	0,625305	4,155884
0,340000	0,669861	3,724518
0,341000	0,631561	4,999847
0,342000	0,660553	3,582764
0,343000	0,643158	4,999847
0,344000	0,653229	4,999847
0,345000	0,650330	4,999847
0,346000	0,646515	4,999847
0,347000	0,657501	4,999847
0,348000	0,635223	4,394073
0,349000	0,664520	4,105225
0,350000	0,628052	4,612427
0,351000	0,669708	4,147644
0,352000	0,626526	4,087677
0,353000	0,680542	4,999847
0,354000	0,628815	4,999847
0,355000	0,679321	4,999847
0,356000	0,640717	4,999847
0,357000	0,669403	4,999847
0,358000	0,652618	4,999847
0,359000	0,662079	3,485718
0,360000	0,660095	2,939453
0,361000	0,651093	4,947205
0,362000	0,668640	2,872009
0,363000	0,640869	4,999847
0,364000	0,677948	4,999847
0,365000	0,631714	4,999847
0,366000	0,686035	4,999847
0,367000	0,614471	4,999847
0,368000	0,689087	4,999847
0,369000	0,614166	2,777710
0,370000	0,677185	4,431610
0,371000	0,639648	3,333282
0,372000	0,670624	4,593201
0,373000	0,656738	4,999847
0,374000	0,663300	4,999847
0,375000	0,670776	4,999847
0,376000	0,650940	4,999847
0,377000	0,680237	4,999847
0,378000	0,645905	4,680023
0,379000	0,692902	3,614502
0,380000	0,638123	4,519043
0,381000	0,702972	3,175812
0,382000	0,615692	4,355011
0,383000	0,697174	4,999847
0,384000	0,615692	4,999847
0,385000	0,679169	4,999847
0,386000	0,591583	4,999847
0,387000	0,558014	4,999847
0,388000	0,528412	4,244232
0,389000	0,603485	4,419250
0,390000	0,598907	4,492035
0,391000	0,654602	3,552399
0,392000	0,603333	4,999847
0,393000	0,675507	4,999847
0,394000	0,593872	4,999847
0,395000	0,689545	4,999847
0,396000	0,587769	4,999847
0,397000	0,691223	4,999847
0,398000	0,610199	4,851379
0,399000	0,673065	4,002991
0,400000	0,629883	2,964783
0,401000	0,657501	3,892517
0,402000	0,650177	3,400421
0,403000	0,641479	4,960937
0,404000	0,668030	4,999847
0,405000	0,630951	4,999847
0,406000	0,684662	4,999847
0,407000	0,620270	4,999847
0,408000	0,701752	4,373474
0,409000	0,608978	3,671265
0,410000	0,697174	3,682709
0,411000	0,600586	3,087769
0,412000	0,701752	4,771118
0,413000	0,631561	4,999847
0,414000	0,686798	4,999847
0,415000	0,653992	4,999847
0,416000	0,670624	4,999847
0,417000	0,673828	4,999847
0,418000	0,658417	4,994049
0,419000	0,693359	4,656830
0,420000	0,645294	3,208771
0,421000	0,709381	3,625183
0,422000	0,636444	3,296967
0,423000	0,726624	4,999847
0,424000	0,625305	4,999847
0,425000	0,738373	4,999847
0,426000	0,634308	4,999847
0,427000	0,718536	4,999847
0,428000	0,657349	4,346313
0,429000	0,700073	3,518219
0,430000	0,678864	3,899384
0,431000	0,685577	2,588043
0,432000	0,699310	4,999847
0,433000	0,670319	4,999847
0,434000	0,715637	4,999847
0,435000	0,658417	4,999847
0,436000	0,735321	4,999847
0,437000	0,649109	4,999847
0,438000	0,749664	4,702454
0,439000	0,637970	4,509125
0,440000	0,748291	2,396851
0,441000	0,656128	4,999847
0,442000	0,727081	3,188019
0,443000	0,678711	4,999847
0,444000	0,710754	4,999847
0,445000	0,700378	4,999847
0,446000	0,693970	4,999847
0,447000	0,718231	4,999847
0,448000	0,681915	4,579010
0,449000	0,736847	3,794861
0,450000	0,670624	4,037628
0,451000	0,752411	4,274139
0,452000	0,659332	4,999847
0,453000	0,768127	4,999847
0,454000	0,657196	4,999847
0,455000	0,761261	4,999847
0,456000	0,682526	4,999847
0,457000	0,742645	4,999847
0,458000	0,705414	4,534302
0,459000	0,726624	4,227448
0,460000	0,726471	2,671661
0,461000	0,710449	3,835602
0,462000	0,744171	4,001312
0,463000	0,698090	4,999847
0,464000	0,761261	4,999847
0,465000	0,685425	4,999847
0,466000	0,776978	4,999847
0,467000	0,675812	4,999847
0,468000	0,790558	4,553375
0,469000	0,683594	4,230042
0,470000	0,774536	4,104919
0,471000	0,708618	4,298248
0,472000	0,758820	4,999847
0,473000	0,731964	4,999847
0,474000	0,740509	4,999847
0,475000	0,751190	4,999847
0,476000	0,724182	4,999847
0,477000	0,768280	4,999847
0,478000	0,713043	4,999847
0,479000	0,786285	4,562683
0,480000	0,703583	3,262177
0,481000	0,801392	4,197388
0,482000	0,692596	4,252625
0,483000	0,802765	4,999847
0,484000	0,708618	4,999847
0,485000	0,784454	4,999847
0,486000	0,732880	4,999847
0,487000	0,768433	4,999847
0,488000	0,755157	4,999847
0,489000	0,754395	3,530731
0,490000	0,775299	3,442841
0,491000	0,742187	4,311523
0,492000	0,793762	4,999847
0,493000	0,729523	4,999847
0,494000	0,809937	4,999847
0,495000	0,719604	4,999847
0,496000	0,827332	4,999847
0,497000	0,715179	4,999847
0,498000	0,826416	4,999847
0,499000	0,739746	4,605103
0,500000	0,802917	2,789154
0,501000	0,760345	4,209290
0,502000	0,786133	4,524078
0,503000	0,780945	4,933319
0,504000	0,772400	4,999847
0,505000	0,801086	4,999847
0,506000	0,759888	4,999847
0,507000	0,819855	4,999847
0,508000	0,749512	4,999847
0,509000	0,839233	3,916779
0,510000	0,741577	2,745361
0,511000	0,857239	4,945374
0,512000	0,733795	4,969788
0,513000	0,845490	4,999847
0,514000	0,769043	4,999847
0,515000	0,847778	4,999847
0,516000	0,800934	4,999847
0,517000	0,830383	4,999847
0,518000	0,821075	4,999847
0,519000	0,818787	4,546051
0,520000	0,842896	3,643646
0,521000	0,804749	4,849396
0,522000	0,861359	3,829193
0,523000	0,790710	4,999847
0,524000	0,876617	4,999847
0,525000	0,778198	4,999847
0,526000	0,886383	4,999847
0,527000	0,786438	4,999847
0,528000	0,878448	4,999847
0,529000	0,804138	3,922424
0,530000	0,873718	3,822174
0,531000	0,833740	4,255371
0,532000	0,852661	4,867859
0,533000	0,852203	4,999847
0,534000	0,834808	4,999847
0,535000	0,869141	4,999847
0,536000	0,817108	4,999847
0,537000	0,881958	4,999847
0,538000	0,798492	4,999847
0,539000	0,889435	4,190216
0,540000	0,791168	3,597260
0,541000	0,894165	4,439850
0,542000	0,816498	4,028320
0,543000	0,892792	4,999847
0,544000	0,838165	4,999847
0,545000	0,884857	4,999847
0,546000	0,857697	4,999847
0,547000	0,867462	4,999847
0,548000	0,876007	4,999847
0,549000	0,848236	2,992859
0,550000	0,887451	2,813263
0,551000	0,836945	4,089050
0,552000	0,894165	4,999847
0,553000	0,819855	4,999847
0,554000	0,896149	4,999847
0,555000	0,804749	4,999847
0,556000	0,719452	4,999847
0,557000	0,680237	4,999847
0,558000	0,662231	4,999847
0,559000	0,653534	4,472046
0,560000	0,650482	3,935089
0,561000	0,648804	4,999847
0,562000	0,647430	3,578186
0,563000	0,647278	4,999847
0,564000	0,646667	4,999847
0,565000	0,646820	4,999847
0,566000	0,646973	4,999847
0,567000	0,646973	4,999847
0,568000	0,647430	4,685211
0,569000	0,647125	3,764496
0,570000	0,648346	3,359528
0,571000	0,648346	4,638214
0,572000	0,647888	4,809265
0,573000	0,648346	4,999847
0,574000	0,648956	4,999847
0,575000	0,647278	4,999847
0,576000	0,646820	4,999847
0,577000	0,623627	4,999847
0,578000	0,607605	4,999847
0,579000	0,596008	3,842468
0,580000	0,590820	3,298340
0,581000	0,593414	4,999847
0,582000	0,594635	3,780212
0,583000	0,593719	4,999847
0,584000	0,598602	4,999847
0,585000	0,604248	4,999847
0,586000	0,604706	4,999847
0,587000	0,603180	4,999847
0,588000	0,605011	4,878387
0,589000	0,607452	3,997955
0,590000	0,607147	4,224396
0,591000	0,606232	3,622437
0,592000	0,607605	4,523621
0,593000	0,606537	4,999847
0,594000	0,611572	4,999847
0,595000	0,612030	4,999847
0,596000	0,612030	4,999847
0,597000	0,610657	4,999847
0,598000	0,607910	4,999847
0,599000	0,594177	3,861389
0,600000	0,582886	3,360291
0,601000	0,583191	4,456482
0,602000	0,587769	3,420258
0,603000	0,588837	4,999847
0,604000	0,593109	4,999847
0,605000	0,592804	4,999847
0,606000	0,592194	4,999847
0,607000	0,590363	4,999847
0,608000	0,576019	4,340363
0,609000	0,575256	3,118134
0,610000	0,583649	3,937683
0,611000	0,589294	3,414764
0,612000	0,593262	4,921112
0,613000	0,594788	4,999847
0,614000	0,576019	4,999847
0,615000	0,542145	4,999847
0,616000	0,532074	4,999847
0,617000	0,552521	4,999847
0,618000	0,557251	4,999847
0,619000	0,563660	3,659821
0,620000	0,573578	2,975464
0,621000	0,584564	4,999847
0,622000	0,591888	3,717194
0,623000	0,594025	4,999847
0,624000	0,591431	4,999847
0,625000	0,591125	4,999847
0,626000	0,589600	4,999847
0,627000	0,592804	4,999847
0,628000	0,592804	4,387054
0,629000	0,593414	3,205261
0,630000	0,592346	4,590302
0,631000	0,590973	4,253693
0,632000	0,591431	4,702301
0,633000	0,593567	4,999847
0,634000	0,568237	4,999847
0,635000	0,583649	4,999847
0,636000	0,592499	4,999847
0,637000	0,597687	4,999847
0,638000	0,598297	4,999847
0,639000	0,597229	4,375305
0,640000	0,597839	4,415588
0,641000	0,594940	4,455719
0,642000	0,595551	3,548584
0,643000	0,600433	4,999847
0,644000	0,598907	4,999847
0,645000	0,598755	4,999847
0,646000	0,599213	4,999847
0,647000	0,592651	4,999847
0,648000	0,599365	4,999847
0,649000	0,591125	3,162079
0,650000	0,599060	4,191895
0,651000	0,599518	2,614899
0,652000	0,602112	4,881439
0,653000	0,597076	4,999847
0,654000	0,600739	4,999847
0,655000	0,588837	4,999847
0,656000	0,593719	4,999847
0,657000	0,595551	4,999847
0,658000	0,596313	4,999847
0,659000	0,595093	4,367065
0,660000	0,595398	3,825684
0,661000	0,588074	4,664764
0,662000	0,589142	4,840546
0,663000	0,592346	4,999847
0,664000	0,592804	4,999847
0,665000	0,596924	4,999847
0,666000	0,592804	4,999847
0,667000	0,591888	4,999847
0,668000	0,592346	4,226532
0,669000	0,592957	4,066772
0,670000	0,592804	4,038544
0,671000	0,594177	3,835144
0,672000	0,596771	4,836273
0,673000	0,596466	4,999847
0,674000	0,596466	4,999847
0,675000	0,596924	4,999847
0,676000	0,598450	4,999847
0,677000	0,597992	4,999847
0,678000	0,599365	4,646454
0,679000	0,596771	4,137573
0,680000	0,598450	3,861389
0,681000	0,595703	4,708252
0,682000	0,599213	3,707428
0,683000	0,594330	4,999847
0,684000	0,597229	4,999847
0,685000	0,596008	4,999847
0,686000	0,594635	4,999847
0,687000	0,589600	4,999847
0,688000	0,589294	4,999847
0,689000	0,599518	3,527985
0,690000	0,604401	4,163666
0,691000	0,617371	2,823639
0,692000	0,618134	4,999847
0,693000	0,627594	4,999847
0,694000	0,624847	4,999847
0,695000	0,636444	4,999847
0,696000	0,629425	4,999847
0,697000	0,646515	4,999847
0,698000	0,639343	4,999847
0,699000	0,648041	4,843292
0,700000	0,646667	3,675079
0,701000	0,647430	4,300079
0,702000	0,647430	4,324341
0,703000	0,651093	4,109497
0,704000	0,653534	4,999847
0,705000	0,644836	4,999847
0,706000	0,642242	4,999847
0,707000	0,632477	4,999847
0,708000	0,640717	4,211121
0,709000	0,628815	4,405518
0,710000	0,641174	3,699799
0,711000	0,631256	4,115295
0,712000	0,639038	4,256744
0,713000	0,631866	4,999847
0,714000	0,635986	4,999847
0,715000	0,632629	4,999847
0,716000	0,633698	4,999847
0,717000	0,599823	4,999847
0,718000	0,612793	4,979706
0,719000	0,624084	4,041901
0,720000	0,621796	3,901520
0,721000	0,629578	4,139404
0,722000	0,619354	4,195557
0,723000	0,632477	4,999847
0,724000	0,622864	4,999847
0,725000	0,635681	4,999847
0,726000	0,625458	4,999847
0,727000	0,635071	4,999847
0,728000	0,629425	4,999847
0,729000	0,629883	4,174347
0,730000	0,630798	3,688049
0,731000	0,631561	4,381256
0,732000	0,635681	4,999847
0,733000	0,632019	4,999847
0,734000	0,641174	4,999847
0,735000	0,635681	4,999847
0,736000	0,649414	4,999847
0,737000	0,635834	4,999847
0,738000	0,649567	4,999847
0,739000	0,632629	4,233398
0,740000	0,650482	3,401947
0,741000	0,641937	4,999847
0,742000	0,653229	4,989777
0,743000	0,647888	4,999847
0,744000	0,650024	4,999847
0,745000	0,652008	4,999847
0,746000	0,650330	4,999847
0,747000	0,657043	4,999847
0,748000	0,646820	4,999847
0,749000	0,659332	3,691254
0,750000	0,648956	3,588562
0,751000	0,664215	4,563599
0,752000	0,645599	4,724121
0,753000	0,665436	4,999847
0,754000	0,649872	4,999847
0,755000	0,668793	4,999847
0,756000	0,654755	4,999847
0,757000	0,666504	4,999847
0,758000	0,664062	4,898987
0,759000	0,667725	4,396057
0,760000	0,667267	3,854065
0,761000	0,660248	4,142609
0,762000	0,668488	3,275452
0,763000	0,655975	4,999847
0,764000	0,671387	4,999847
0,765000	0,652008	4,999847
0,766000	0,674896	4,999847
0,767000	0,649261	4,999847
0,768000	0,677643	4,999847
0,769000	0,653687	3,221436
0,770000	0,672913	4,190826
0,771000	0,659943	4,793243
0,772000	0,668945	4,770966
0,773000	0,664368	4,999847
0,774000	0,663757	4,999847
0,775000	0,669861	4,999847
0,776000	0,660248	4,999847
0,777000	0,676880	4,999847
0,778000	0,659180	4,999847
0,779000	0,683289	4,949646
0,780000	0,652161	2,794189
0,781000	0,685272	4,703674
0,782000	0,643158	3,462677
0,783000	0,681458	4,999847
0,784000	0,657349	4,999847
0,785000	0,677338	4,999847
0,786000	0,660248	4,999847
0,787000	0,667114	4,999847
0,788000	0,664215	4,742432
0,789000	0,663147	3,194733
0,790000	0,677338	3,803558
0,791000	0,663605	3,660889
0,792000	0,686493	4,999847
0,793000	0,663605	4,999847
0,794000	0,694885	4,999847
0,795000	0,652008	4,999847
0,796000	0,696869	4,999847
0,797000	0,658417	4,999847
0,798000	0,694885	4,999847
0,799000	0,669098	4,291992
0,800000	0,684662	3,348083
0,801000	0,675507	4,531403
0,802000	0,681610	4,144440
0,803000	0,686340	4,999847
0,804000	0,677795	4,999847
0,805000	0,694275	4,999847
0,806000	0,669250	4,999847
0,807000	0,699005	4,999847
0,808000	0,665741	4,936981
0,809000	0,708008	3,526764
0,810000	0,658417	4,246979
0,811000	0,713348	3,184357
0,812000	0,667114	4,999847
0,813000	0,704498	4,999847
0,814000	0,676880	4,999847
0,815000	0,696259	4,999847
0,816000	0,686951	4,999847
0,817000	0,678864	4,999847
0,818000	0,690460	4,999847
0,819000	0,654602	4,083710
0,820000	0,685425	3,638153
0,821000	0,667267	4,991455
0,822000	0,712433	4,459229
0,823000	0,663757	4,999847
0,824000	0,626831	4,999847
0,825000	0,611267	4,999847
0,826000	0,605774	4,999847
0,827000	0,629120	4,999847
0,828000	0,685730	4,950409
0,829000	0,681152	3,790131
0,830000	0,691376	3,992462
0,831000	0,697784	4,801178
0,832000	0,688934	4,972076
0,833000	0,710602	4,999847
0,834000	0,684509	4,999847
0,835000	0,722656	4,999847
0,836000	0,682220	4,999847
0,837000	0,733032	4,999847
0,838000	0,672913	4,999847
0,839000	0,740204	4,563751
0,840000	0,669708	3,196106
0,841000	0,724945	4,433289
0,842000	0,691071	3,657990
0,843000	0,717316	4,999847
0,844000	0,708313	4,999847
0,845000	0,716400	4,999847
0,846000	0,723724	4,999847
0,847000	0,711060	4,999847
0,848000	0,736847	4,627991
0,849000	0,702820	4,045105
0,850000	0,746002	3,696442
0,851000	0,697327	4,066162
0,852000	0,755463	4,188538
0,853000	0,686035	4,999847
0,854000	0,759277	4,999847
0,855000	0,702209	4,999847
0,856000	0,751648	4,999847
0,857000	0,714874	4,999847
0,858000	0,733185	4,999847
0,859000	0,722961	4,325409
0,860000	0,725403	3,880463
0,861000	0,739899	4,878235
0,862000	0,718842	3,996887
0,863000	0,752106	4,866791
0,864000	0,700836	4,999847
0,865000	0,758362	4,999847
0,866000	0,698090	4,999847
0,867000	0,771027	4,999847
0,868000	0,706635	4,643250
0,869000	0,782471	3,916321
0,870000	0,726471	4,358521
0,871000	0,771484	3,351440
0,872000	0,739594	4,794159
0,873000	0,763092	4,999847
0,874000	0,757446	4,999847
0,875000	0,754852	4,999847
0,876000	0,770416	4,999847
0,877000	0,743256	4,999847
0,878000	0,779572	4,999847
0,879000	0,735931	3,957672
0,880000	0,791473	3,497009
0,881000	0,720673	4,656830
0,882000	0,797577	4,056244
0,883000	0,707550	4,999847
0,884000	0,787048	4,999847
0,885000	0,730286	4,999847
0,886000	0,781860	4,999847
0,887000	0,754547	4,999847
0,888000	0,773010	4,999847
0,889000	0,773315	3,712616
0,890000	0,760040	3,550262
0,891000	0,782928	4,147491
0,892000	0,752411	4,999847
0,893000	0,797882	4,999847
0,894000	0,743713	4,999847
0,895000	0,810699	4,999847
0,896000	0,719604	4,999847
0,897000	0,814514	4,999847
0,898000	0,726166	4,999847
0,899000	0,806427	4,240875
0,900000	0,750885	3,749237
0,901000	0,785370	4,188538
0,902000	0,760193	3,348541
0,903000	0,765686	4,999847
0,904000	0,774994	4,999847
0,905000	0,752258	4,999847
0,906000	0,791779	4,999847
0,907000	0,741882	4,999847
0,908000	0,806427	4,985046
0,909000	0,728149	3,161926
0,910000	0,818481	3,479004
0,911000	0,731354	4,343414
0,912000	0,834045	4,999847
0,913000	0,754852	4,999847
0,914000	0,827942	4,999847
0,915000	0,773163	4,999847
0,916000	0,809326	4,999847
0,917000	0,786743	4,999847
0,918000	0,795593	4,862061
0,919000	0,805969	3,846283
0,920000	0,776520	3,219910
0,921000	0,816956	3,408966
0,922000	0,750427	4,953613
0,923000	0,828705	4,999847
0,924000	0,767670	4,999847
0,925000	0,858765	4,999847
0,926000	0,796204	4,999847
0,927000	0,879517	4,999847
0,928000	0,806274	4,999847
0,929000	0,873871	4,089966
0,930000	0,819702	3,681946
0,931000	0,854645	4,259644
0,932000	0,834503	4,999847
0,933000	0,834808	4,999847
0,934000	0,847473	4,999847
0,935000	0,803680	4,999847
0,936000	0,850220	4,999847
0,937000	0,783386	4,999847
0,938000	0,861816	4,999847
0,939000	0,765076	4,299774
0,940000	0,872955	2,758789
0,941000	0,783539	3,917389
0,942000	0,879822	3,419342
0,943000	0,809631	4,999847
0,944000	0,865021	4,999847
0,945000	0,822601	4,999847
0,946000	0,841522	4,999847
0,947000	0,836334	4,999847
0,948000	0,824280	4,879456
0,949000	0,853271	3,767090
0,950000	0,813446	3,868256
0,951000	0,871887	3,345490
0,952000	0,800629	4,999847
0,953000	0,882721	4,999847
0,954000	0,792694	4,999847
0,955000	0,888672	4,999847
0,956000	0,807190	4,999847
0,957000	0,886841	4,999847
0,958000	0,825195	4,999847
0,959000	0,874786	4,999847
0,960000	0,845490	3,138885
0,961000	0,858765	4,803162
0,962000	0,865479	3,936615
0,963000	0,828094	4,999847
0,964000	0,871582	4,999847
0,965000	0,793610	4,999847
0,966000	0,875854	4,999847
0,967000	0,787659	4,999847
0,968000	0,888214	4,999847
0,969000	0,794678	4,154816
0,970000	0,888214	3,603821
0,971000	0,809479	2,734680
0,972000	0,884247	4,999847
0,973000	0,836182	4,999847
0,974000	0,846100	4,999847
0,975000	0,845032	4,999847
0,976000	0,828857	4,999847
0,977000	0,862274	4,999847
0,978000	0,791321	4,999847
0,979000	0,868073	4,131775
0,980000	0,803070	3,014679
0,981000	0,888824	4,098816
0,982000	0,784760	4,136353
0,983000	0,892487	4,999847
0,984000	0,809021	4,999847
0,985000	0,893097	4,999847
0,986000	0,834503	4,999847
0,987000	0,842743	4,999847
0,988000	0,830383	4,999847
0,989000	0,823212	4,060669
0,990000	0,848846	3,421173
0,991000	0,842896	4,280701
0,992000	0,883331	4,728851
0,993000	0,822601	4,999847
0,994000	0,727386	4,999847
0,995000	0,683441	4,999847
0,996000	0,663757	4,999847
0,997000	0,654449	4,999847
0,998000	0,650024	4,873810
0,999000	0,647888	4,392853

