LabVIEW Measurement	
Writer_Version	2
Reader_Version	2
Separator	Tab
Decimal_Separator	,
Multi_Headings	Yes
X_Columns	One
Time_Pref	Absolute
Operator	d.nicolai
Date	2023/11/09
Time	16:04:05,6565121999996605588
***End_of_Header***	
	
Channels	2		
Samples	1000	1000	
Date	2023/11/09	2023/11/09	
Time	16:04:31,2235127999998847634	16:04:31,2235127999998847634	
Y_Unit_Label	Volts	Volts	
X_Dimension	Time	Time	
X0	0,0000000000000000E+0	0,0000000000000000E+0	
Delta_X	0,001000	0,001000	
***End_of_Header***			
X_Value	powebox	triggerbox	Comment
0,000000	0,717621	0,778351
0,001000	0,729523	4,999847
0,002000	0,726013	4,999847
0,003000	0,726013	4,999847
0,004000	0,735168	4,999847
0,005000	0,726471	4,999847
0,006000	0,747070	4,999847
0,007000	0,715637	4,999847
0,008000	0,753021	4,945526
0,009000	0,712891	3,210297
0,010000	0,764618	2,819977
0,011000	0,725708	4,505920
0,012000	0,769958	4,579620
0,013000	0,730286	4,999847
0,014000	0,756226	4,999847
0,015000	0,740356	4,999847
0,016000	0,754242	4,999847
0,017000	0,749359	4,999847
0,018000	0,742035	4,999847
0,019000	0,756683	4,014587
0,020000	0,728455	3,400726
0,021000	0,762482	3,708649
0,022000	0,727692	4,027863
0,023000	0,774384	4,999847
0,024000	0,731506	4,999847
0,025000	0,787506	4,999847
0,026000	0,742035	4,999847
0,027000	0,789185	4,999847
0,028000	0,746918	4,633026
0,029000	0,780487	3,901978
0,030000	0,761108	4,523315
0,031000	0,778046	4,968109
0,032000	0,772705	4,721832
0,033000	0,754852	4,999847
0,034000	0,776672	4,999847
0,035000	0,760956	4,999847
0,036000	0,795593	4,999847
0,037000	0,732727	4,999847
0,038000	0,795746	4,999847
0,039000	0,758820	3,704529
0,040000	0,818634	2,888336
0,041000	0,771484	4,568329
0,042000	0,825500	3,551331
0,043000	0,793762	4,999847
0,044000	0,814362	4,999847
0,045000	0,789642	4,999847
0,046000	0,801849	4,999847
0,047000	0,801544	4,999847
0,048000	0,778961	4,444427
0,049000	0,805664	2,590790
0,050000	0,789185	3,232574
0,051000	0,826416	4,600677
0,052000	0,769501	4,125671
0,053000	0,832214	4,999847
0,054000	0,802307	4,999847
0,055000	0,846100	4,999847
0,056000	0,803680	4,999847
0,057000	0,839539	4,999847
0,058000	0,803833	4,827423
0,059000	0,819550	4,210358
0,060000	0,805359	4,999695
0,061000	0,820312	4,257050
0,062000	0,827942	3,440857
0,063000	0,797119	4,999847
0,064000	0,830841	4,999847
0,065000	0,782776	4,999847
0,066000	0,837097	4,999847
0,067000	0,780182	4,999847
0,068000	0,845947	4,280090
0,069000	0,803375	2,916107
0,070000	0,850067	3,108368
0,071000	0,822601	4,138794
0,072000	0,849457	3,840179
0,073000	0,833130	4,999847
0,074000	0,845947	4,999847
0,075000	0,840302	4,999847
0,076000	0,827332	4,999847
0,077000	0,841370	4,999847
0,078000	0,807343	4,736938
0,079000	0,844727	4,100189
0,080000	0,796661	3,993530
0,081000	0,849762	3,825684
0,082000	0,813751	4,049072
0,083000	0,853729	4,999847
0,084000	0,818939	4,999847
0,085000	0,853729	4,999847
0,086000	0,837860	4,999847
0,087000	0,850983	4,999847
0,088000	0,808868	4,558868
0,089000	0,846558	2,436676
0,090000	0,847931	2,586670
0,091000	0,835419	3,892059
0,092000	0,850067	4,091644
0,093000	0,828857	4,999847
0,094000	0,851898	4,999847
0,095000	0,831757	4,999847
0,096000	0,855255	4,999847
0,097000	0,824738	4,999847
0,098000	0,855255	4,855652
0,099000	0,835266	3,638916
0,100000	0,851898	4,853210
0,101000	0,838318	4,140625
0,102000	0,853424	3,599091
0,103000	0,852814	4,999847
0,104000	0,851288	4,999847
0,105000	0,853729	4,999847
0,106000	0,848846	4,999847
0,107000	0,854340	4,999847
0,108000	0,841522	4,832306
0,109000	0,854645	2,631073
0,110000	0,838776	4,214325
0,111000	0,857544	3,810120
0,112000	0,847015	4,999847
0,113000	0,857391	4,999847
0,114000	0,852509	4,999847
0,115000	0,856171	4,999847
0,116000	0,854340	4,999847
0,117000	0,854340	4,999847
0,118000	0,855255	4,999847
0,119000	0,851440	4,465332
0,120000	0,855408	2,718506
0,121000	0,843506	3,644714
0,122000	0,855713	4,263763
0,123000	0,838623	4,999847
0,124000	0,857086	4,999847
0,125000	0,838776	4,999847
0,126000	0,858307	4,999847
0,127000	0,847168	4,999847
0,128000	0,857697	4,999847
0,129000	0,854797	3,253632
0,130000	0,856628	3,249969
0,131000	0,856018	4,748077
0,132000	0,854340	4,999847
0,133000	0,856476	4,999847
0,134000	0,851898	4,999847
0,135000	0,856934	4,999847
0,136000	0,831299	4,999847
0,137000	0,856934	4,999847
0,138000	0,833130	4,999847
0,139000	0,858765	3,194580
0,140000	0,843201	3,527832
0,141000	0,858917	3,269501
0,142000	0,799103	4,999847
0,143000	0,718231	4,999847
0,144000	0,682678	4,999847
0,145000	0,662689	4,999847
0,146000	0,652161	4,999847
0,147000	0,643005	4,999847
0,148000	0,634308	4,967499
0,149000	0,628967	3,663635
0,150000	0,627747	3,633118
0,151000	0,627899	3,768158
0,152000	0,629425	4,999847
0,153000	0,632477	4,999847
0,154000	0,634155	4,999847
0,155000	0,630188	4,999847
0,156000	0,629730	4,999847
0,157000	0,626526	4,999847
0,158000	0,628815	4,999847
0,159000	0,626984	3,946381
0,160000	0,628967	3,138733
0,161000	0,627136	2,429047
0,162000	0,623474	4,390869
0,163000	0,623016	4,999847
0,164000	0,607452	4,999847
0,165000	0,602722	4,999847
0,166000	0,599060	4,999847
0,167000	0,594940	4,999847
0,168000	0,594025	4,936981
0,169000	0,590668	3,402710
0,170000	0,589447	4,519653
0,171000	0,586243	3,670044
0,172000	0,587311	4,927368
0,173000	0,590057	4,999847
0,174000	0,589447	4,999847
0,175000	0,591278	4,999847
0,176000	0,594330	4,999847
0,177000	0,596008	4,999847
0,178000	0,591583	4,149475
0,179000	0,591888	4,241943
0,180000	0,589905	3,608704
0,181000	0,588074	4,091492
0,182000	0,588226	4,949799
0,183000	0,589447	4,842682
0,184000	0,589752	4,999847
0,185000	0,589905	4,999847
0,186000	0,589905	4,999847
0,187000	0,589905	4,999847
0,188000	0,591431	3,882751
0,189000	0,592804	2,960968
0,190000	0,569916	2,962646
0,191000	0,572968	4,131470
0,192000	0,587769	4,999847
0,193000	0,592804	4,999847
0,194000	0,596771	4,999847
0,195000	0,597839	4,999847
0,196000	0,598602	4,999847
0,197000	0,596771	4,999847
0,198000	0,593109	4,947662
0,199000	0,590057	4,631805
0,200000	0,594025	4,021606
0,201000	0,594330	3,834839
0,202000	0,595093	4,804993
0,203000	0,593719	4,999847
0,204000	0,592346	4,999847
0,205000	0,591888	4,999847
0,206000	0,589905	4,999847
0,207000	0,590668	4,999847
0,208000	0,587921	4,070587
0,209000	0,593262	4,201508
0,210000	0,594482	2,677612
0,211000	0,596771	4,877625
0,212000	0,598297	4,999847
0,213000	0,595398	4,999847
0,214000	0,596313	4,999847
0,215000	0,596924	4,999847
0,216000	0,598297	4,999847
0,217000	0,597534	4,999847
0,218000	0,597687	4,949341
0,219000	0,596466	4,069366
0,220000	0,602417	3,429565
0,221000	0,599518	3,692322
0,222000	0,601501	4,412079
0,223000	0,599060	4,999847
0,224000	0,603638	4,999847
0,225000	0,602112	4,999847
0,226000	0,601654	4,999847
0,227000	0,603180	4,999847
0,228000	0,604095	4,144592
0,229000	0,602417	3,178406
0,230000	0,602875	2,844543
0,231000	0,604248	4,914398
0,232000	0,603943	4,999847
0,233000	0,606995	4,999847
0,234000	0,598755	4,999847
0,235000	0,596161	4,999847
0,236000	0,585480	4,999847
0,237000	0,582428	4,999847
0,238000	0,589447	4,999847
0,239000	0,589142	4,882812
0,240000	0,590973	2,814789
0,241000	0,591583	4,687958
0,242000	0,587158	4,812775
0,243000	0,586395	4,999847
0,244000	0,590820	4,999847
0,245000	0,593872	4,999847
0,246000	0,599213	4,999847
0,247000	0,593872	4,999847
0,248000	0,598602	4,051056
0,249000	0,592041	2,927094
0,250000	0,596313	4,090424
0,251000	0,591888	3,757019
0,252000	0,598450	4,999847
0,253000	0,590210	4,999847
0,254000	0,592499	4,999847
0,255000	0,586853	4,999847
0,256000	0,583038	4,999847
0,257000	0,580292	4,999847
0,258000	0,581207	4,999847
0,259000	0,580292	4,828491
0,260000	0,579224	3,651428
0,261000	0,582428	3,249969
0,262000	0,579681	4,393616
0,263000	0,583191	4,999847
0,264000	0,578918	4,999847
0,265000	0,585480	4,999847
0,266000	0,580902	4,999847
0,267000	0,594025	4,999847
0,268000	0,594788	4,071655
0,269000	0,606995	3,187866
0,270000	0,612640	3,620453
0,271000	0,616302	3,737030
0,272000	0,621033	4,999847
0,273000	0,615692	4,999847
0,274000	0,618896	4,999847
0,275000	0,615082	4,999847
0,276000	0,620880	4,999847
0,277000	0,614166	4,999847
0,278000	0,628815	4,737244
0,279000	0,621643	4,146423
0,280000	0,627899	3,854675
0,281000	0,617676	4,139099
0,282000	0,629425	4,563141
0,283000	0,623779	4,999847
0,284000	0,625458	4,999847
0,285000	0,629425	4,999847
0,286000	0,624084	4,999847
0,287000	0,625000	4,999847
0,288000	0,628052	4,999847
0,289000	0,628967	3,101044
0,290000	0,625153	2,902374
0,291000	0,631256	4,882965
0,292000	0,626526	4,999847
0,293000	0,598450	4,999847
0,294000	0,610199	4,999847
0,295000	0,627747	4,999847
0,296000	0,624847	4,999847
0,297000	0,633240	4,999847
0,298000	0,621185	4,999847
0,299000	0,622711	3,865356
0,300000	0,625763	2,793274
0,301000	0,629730	4,057770
0,302000	0,638885	3,974457
0,303000	0,631866	4,999847
0,304000	0,642090	4,999847
0,305000	0,633698	4,999847
0,306000	0,639038	4,999847
0,307000	0,624695	4,999847
0,308000	0,639801	4,999847
0,309000	0,624237	2,767181
0,310000	0,632324	4,651489
0,311000	0,615387	3,420715
0,312000	0,614319	4,947205
0,313000	0,608215	4,999847
0,314000	0,608978	4,999847
0,315000	0,607910	4,999847
0,316000	0,608215	4,999847
0,317000	0,623627	4,999847
0,318000	0,632935	4,683533
0,319000	0,650330	4,151306
0,320000	0,644684	3,150177
0,321000	0,659180	3,943939
0,322000	0,642700	4,007111
0,323000	0,652924	4,999847
0,324000	0,638275	4,999847
0,325000	0,646820	4,999847
0,326000	0,639496	4,999847
0,327000	0,648651	4,999847
0,328000	0,646515	4,179535
0,329000	0,646667	3,266602
0,330000	0,647278	2,715302
0,331000	0,636902	4,965515
0,332000	0,647583	4,999847
0,333000	0,634613	4,999847
0,334000	0,634918	4,999847
0,335000	0,615997	4,999847
0,336000	0,628052	4,999847
0,337000	0,608368	4,999847
0,338000	0,621948	4,999847
0,339000	0,610046	3,525696
0,340000	0,622101	3,863373
0,341000	0,617371	3,074646
0,342000	0,623169	4,318848
0,343000	0,622864	4,999847
0,344000	0,625916	4,999847
0,345000	0,639343	4,999847
0,346000	0,634155	4,999847
0,347000	0,644684	4,999847
0,348000	0,627899	4,743958
0,349000	0,640869	2,713470
0,350000	0,621490	3,557587
0,351000	0,644836	4,581299
0,352000	0,616302	4,999847
0,353000	0,639648	4,999847
0,354000	0,632477	4,999847
0,355000	0,651093	4,999847
0,356000	0,643768	4,999847
0,357000	0,647125	4,999847
0,358000	0,651855	4,999847
0,359000	0,653076	3,748779
0,360000	0,668945	4,470367
0,361000	0,653534	3,592682
0,362000	0,668945	4,039154
0,363000	0,650787	4,999847
0,364000	0,673981	4,999847
0,365000	0,649567	4,999847
0,366000	0,677032	4,999847
0,367000	0,654602	4,999847
0,368000	0,678711	4,120636
0,369000	0,657959	3,807373
0,370000	0,673218	4,375916
0,371000	0,663147	3,293915
0,372000	0,665588	4,791107
0,373000	0,665741	4,999847
0,374000	0,661469	4,999847
0,375000	0,670319	4,999847
0,376000	0,647583	4,999847
0,377000	0,661316	4,999847
0,378000	0,619659	4,999847
0,379000	0,655518	4,543610
0,380000	0,609894	4,628906
0,381000	0,658875	3,195496
0,382000	0,651245	4,999847
0,383000	0,687408	4,999847
0,384000	0,673065	4,999847
0,385000	0,685577	4,999847
0,386000	0,675354	4,999847
0,387000	0,696259	4,999847
0,388000	0,705109	4,025574
0,389000	0,698547	3,243408
0,390000	0,708313	3,724518
0,391000	0,684662	3,986511
0,392000	0,704346	4,999847
0,393000	0,677490	4,999847
0,394000	0,708771	4,999847
0,395000	0,633545	4,999847
0,396000	0,664215	4,999847
0,397000	0,654449	4,999847
0,398000	0,681763	4,999847
0,399000	0,670013	3,982239
0,400000	0,674286	2,857056
0,401000	0,673981	3,745270
0,402000	0,667877	4,999847
0,403000	0,680084	4,999847
0,404000	0,653687	4,999847
0,405000	0,679932	4,999847
0,406000	0,647888	4,999847
0,407000	0,688324	4,999847
0,408000	0,646362	4,321136
0,409000	0,697937	3,932953
0,410000	0,639343	3,772125
0,411000	0,610504	4,147491
0,412000	0,601044	4,848022
0,413000	0,664520	4,999847
0,414000	0,638580	4,999847
0,415000	0,691681	4,999847
0,416000	0,642853	4,999847
0,417000	0,699768	4,999847
0,418000	0,657349	4,746399
0,419000	0,693512	4,283295
0,420000	0,668488	3,002625
0,421000	0,682678	3,409882
0,422000	0,675507	4,834137
0,423000	0,671234	4,999847
0,424000	0,684357	4,999847
0,425000	0,664673	4,999847
0,426000	0,691986	4,999847
0,427000	0,654602	4,999847
0,428000	0,701294	4,053955
0,429000	0,646515	3,330078
0,430000	0,709686	3,513641
0,431000	0,654755	4,487610
0,432000	0,713196	4,999847
0,433000	0,667114	4,999847
0,434000	0,704803	4,999847
0,435000	0,685272	4,999847
0,436000	0,701141	4,999847
0,437000	0,698090	4,999847
0,438000	0,690918	4,999847
0,439000	0,708618	4,105072
0,440000	0,675507	3,321075
0,441000	0,712738	2,688751
0,442000	0,669708	4,577942
0,443000	0,723877	4,999847
0,444000	0,663910	4,999847
0,445000	0,735016	4,999847
0,446000	0,675354	4,999847
0,447000	0,734253	4,999847
0,448000	0,692291	3,844299
0,449000	0,728149	4,125214
0,450000	0,709686	4,823914
0,451000	0,719299	4,391022
0,452000	0,718689	4,999847
0,453000	0,699310	4,999847
0,454000	0,725098	4,999847
0,455000	0,693359	4,999847
0,456000	0,737457	4,999847
0,457000	0,704041	4,999847
0,458000	0,756683	4,227600
0,459000	0,700989	4,682465
0,460000	0,769196	2,864380
0,461000	0,714874	3,267059
0,462000	0,773315	4,968719
0,463000	0,725861	4,999847
0,464000	0,760040	4,999847
0,465000	0,739441	4,999847
0,466000	0,747833	4,999847
0,467000	0,748291	4,999847
0,468000	0,732269	3,849030
0,469000	0,756073	3,601379
0,470000	0,728607	2,448883
0,471000	0,769958	4,999847
0,472000	0,729065	4,999847
0,473000	0,784149	4,999847
0,474000	0,729065	4,999847
0,475000	0,798187	4,999847
0,476000	0,750275	4,999847
0,477000	0,810242	4,999847
0,478000	0,764465	4,999847
0,479000	0,803680	4,179840
0,480000	0,774078	4,919739
0,481000	0,805969	4,099426
0,482000	0,795441	4,939270
0,483000	0,784912	4,999847
0,484000	0,801697	4,999847
0,485000	0,729370	4,999847
0,486000	0,784454	4,999847
0,487000	0,704651	4,999847
0,488000	0,790100	3,850708
0,489000	0,720367	3,864899
0,490000	0,803223	3,851776
0,491000	0,734863	3,768768
0,492000	0,790558	4,958344
0,493000	0,750122	4,999847
0,494000	0,780945	4,999847
0,495000	0,769958	4,999847
0,496000	0,772095	4,999847
0,497000	0,773010	4,999847
0,498000	0,728302	4,556122
0,499000	0,784607	4,999390
0,500000	0,752716	3,798981
0,501000	0,815430	3,847809
0,502000	0,749664	3,501129
0,503000	0,832825	4,999847
0,504000	0,773010	4,999847
0,505000	0,842896	4,999847
0,506000	0,780487	4,999847
0,507000	0,827789	4,999847
0,508000	0,787354	4,799042
0,509000	0,824432	3,115692
0,510000	0,812531	3,623657
0,511000	0,799713	4,999847
0,512000	0,820160	4,999847
0,513000	0,784760	4,999847
0,514000	0,829773	4,999847
0,515000	0,782166	4,999847
0,516000	0,843048	4,999847
0,517000	0,769806	4,999847
0,518000	0,849457	4,999847
0,519000	0,777130	3,623199
0,520000	0,849152	3,018799
0,521000	0,788422	4,428558
0,522000	0,840759	3,277588
0,523000	0,813446	4,999847
0,524000	0,821381	4,999847
0,525000	0,824280	4,999847
0,526000	0,803375	4,999847
0,527000	0,832367	4,999847
0,528000	0,778503	4,658508
0,529000	0,838776	3,327179
0,530000	0,764465	1,209717
0,531000	0,847931	4,999847
0,532000	0,767670	4,999847
0,533000	0,852051	4,999847
0,534000	0,779266	4,999847
0,535000	0,848236	4,999847
0,536000	0,797577	4,999847
0,537000	0,824432	4,999847
0,538000	0,809174	4,999847
0,539000	0,814209	3,696289
0,540000	0,828552	3,812561
0,541000	0,805817	3,452759
0,542000	0,845947	4,999847
0,543000	0,789185	4,999847
0,544000	0,852356	4,999847
0,545000	0,771332	4,999847
0,546000	0,856476	4,999847
0,547000	0,786896	4,777527
0,548000	0,858459	4,999847
0,549000	0,825348	3,540802
0,550000	0,856476	3,946381
0,551000	0,840149	3,592072
0,552000	0,854950	4,999847
0,553000	0,853729	4,999847
0,554000	0,841522	4,999847
0,555000	0,854645	4,999847
0,556000	0,826111	4,999847
0,557000	0,857086	4,999847
0,558000	0,856628	4,999847
0,559000	0,858154	3,459167
0,560000	0,855560	2,710419
0,561000	0,861053	3,553772
0,562000	0,856934	4,999847
0,563000	0,861206	4,999847
0,564000	0,858307	4,999847
0,565000	0,859222	4,999847
0,566000	0,858154	4,999847
0,567000	0,856323	4,999847
0,568000	0,858765	4,999847
0,569000	0,855255	3,393555
0,570000	0,859070	2,420349
0,571000	0,854187	4,224854
0,572000	0,859070	4,778900
0,573000	0,853882	4,999847
0,574000	0,860443	4,999847
0,575000	0,851135	4,999847
0,576000	0,861053	4,999847
0,577000	0,856628	4,999847
0,578000	0,860748	4,999847
0,579000	0,802765	4,540558
0,580000	0,724945	4,999847
0,581000	0,688324	3,349609
0,582000	0,661163	4,702759
0,583000	0,646362	4,999847
0,584000	0,640717	4,999847
0,585000	0,639038	4,999847
0,586000	0,650787	4,999847
0,587000	0,658569	4,999847
0,588000	0,658875	4,999847
0,589000	0,658722	3,077240
0,590000	0,659180	3,702087
0,591000	0,655212	4,714203
0,592000	0,653381	4,907227
0,593000	0,655823	4,999847
0,594000	0,652618	4,999847
0,595000	0,653534	4,999847
0,596000	0,649567	4,999847
0,597000	0,651093	4,999847
0,598000	0,643463	4,999847
0,599000	0,641632	3,824921
0,600000	0,597687	4,254150
0,601000	0,587616	3,513794
0,602000	0,596466	4,773407
0,603000	0,602875	4,999847
0,604000	0,600739	4,999847
0,605000	0,604858	4,999847
0,606000	0,608063	4,999847
0,607000	0,608215	4,999847
0,608000	0,611267	4,329987
0,609000	0,613403	4,111328
0,610000	0,618896	4,111176
0,611000	0,624695	4,999847
0,612000	0,623322	4,913788
0,613000	0,625763	4,999847
0,614000	0,627594	4,999847
0,615000	0,627289	4,999847
0,616000	0,628357	4,999847
0,617000	0,625610	4,999847
0,618000	0,630035	4,999847
0,619000	0,630035	4,247589
0,620000	0,628967	1,985168
0,621000	0,632782	4,073334
0,622000	0,633392	4,249573
0,623000	0,635986	4,999847
0,624000	0,634613	4,999847
0,625000	0,619354	4,999847
0,626000	0,610657	4,999847
0,627000	0,606232	4,999847
0,628000	0,604248	4,999847
0,629000	0,606232	3,503265
0,630000	0,605469	2,748871
0,631000	0,601044	4,999847
0,632000	0,601807	4,756012
0,633000	0,603485	4,999847
0,634000	0,603790	4,999847
0,635000	0,605927	4,999847
0,636000	0,606232	4,999847
0,637000	0,600891	4,999847
0,638000	0,599518	4,980469
0,639000	0,600281	3,513031
0,640000	0,607910	4,999847
0,641000	0,604248	3,073578
0,642000	0,609589	4,525604
0,643000	0,608521	4,999847
0,644000	0,597839	4,999847
0,645000	0,585327	4,999847
0,646000	0,599823	4,999847
0,647000	0,603790	4,999847
0,648000	0,602264	4,543457
0,649000	0,610504	3,237762
0,650000	0,617065	3,566742
0,651000	0,617981	3,913727
0,652000	0,612640	4,999847
0,653000	0,611725	4,999847
0,654000	0,607758	4,999847
0,655000	0,609589	4,999847
0,656000	0,606689	4,999847
0,657000	0,599518	4,999847
0,658000	0,599213	4,999847
0,659000	0,600586	3,727112
0,660000	0,599976	4,800873
0,661000	0,599670	2,666016
0,662000	0,596313	4,452057
0,663000	0,595703	4,999847
0,664000	0,588226	4,999847
0,665000	0,589600	4,999847
0,666000	0,592651	4,999847
0,667000	0,596008	4,999847
0,668000	0,599823	4,999847
0,669000	0,597229	3,389282
0,670000	0,596771	2,869720
0,671000	0,593872	4,612885
0,672000	0,599976	4,999847
0,673000	0,590973	4,999847
0,674000	0,595093	4,999847
0,675000	0,593414	4,999847
0,676000	0,593872	4,999847
0,677000	0,592346	4,999847
0,678000	0,595093	4,999847
0,679000	0,591888	3,495483
0,680000	0,589905	3,669586
0,681000	0,594635	4,046631
0,682000	0,591888	4,293823
0,683000	0,595551	4,999847
0,684000	0,592957	4,999847
0,685000	0,603943	4,999847
0,686000	0,600128	4,999847
0,687000	0,604401	4,999847
0,688000	0,603180	4,999847
0,689000	0,610046	3,528442
0,690000	0,614471	2,414246
0,691000	0,615845	4,647675
0,692000	0,617981	4,572601
0,693000	0,615692	4,999847
0,694000	0,613861	4,999847
0,695000	0,615234	4,999847
0,696000	0,622406	4,999847
0,697000	0,622864	4,999847
0,698000	0,629120	4,999847
0,699000	0,621185	4,050446
0,700000	0,631256	3,837585
0,701000	0,623322	3,708191
0,702000	0,596771	4,141998
0,703000	0,574188	4,999847
0,704000	0,581207	4,999847
0,705000	0,606995	4,999847
0,706000	0,612793	4,999847
0,707000	0,615082	4,999847
0,708000	0,617523	3,859100
0,709000	0,621033	3,444672
0,710000	0,613861	2,367859
0,711000	0,618439	4,999847
0,712000	0,610046	4,999847
0,713000	0,620270	4,999847
0,714000	0,612030	4,999847
0,715000	0,616455	4,999847
0,716000	0,602264	4,999847
0,717000	0,603943	4,999847
0,718000	0,607758	4,987640
0,719000	0,612183	4,556732
0,720000	0,613708	3,699036
0,721000	0,614777	3,676910
0,722000	0,621948	3,825073
0,723000	0,617218	4,999847
0,724000	0,620728	4,999847
0,725000	0,610809	4,999847
0,726000	0,612030	4,999847
0,727000	0,610657	4,999847
0,728000	0,616760	4,999847
0,729000	0,612946	3,356934
0,730000	0,627899	3,612518
0,731000	0,623016	3,409271
0,732000	0,634918	4,751892
0,733000	0,629730	4,999847
0,734000	0,627136	4,999847
0,735000	0,629883	4,999847
0,736000	0,632324	4,999847
0,737000	0,637970	4,999847
0,738000	0,621796	4,993896
0,739000	0,617371	3,730774
0,740000	0,614471	3,662109
0,741000	0,642242	3,687592
0,742000	0,637817	4,946442
0,743000	0,654144	4,999847
0,744000	0,642395	4,999847
0,745000	0,641937	4,999847
0,746000	0,623016	4,999847
0,747000	0,617371	4,999847
0,748000	0,618439	4,486847
0,749000	0,624084	3,084412
0,750000	0,625610	3,357391
0,751000	0,622559	4,724274
0,752000	0,630493	4,999847
0,753000	0,619659	4,999847
0,754000	0,623016	4,999847
0,755000	0,613708	4,999847
0,756000	0,627289	4,999847
0,757000	0,612030	4,999847
0,758000	0,627289	4,678040
0,759000	0,612030	3,961182
0,760000	0,617981	3,916473
0,761000	0,609741	3,218842
0,762000	0,610962	4,979553
0,763000	0,608215	4,999847
0,764000	0,610809	4,999847
0,765000	0,613556	4,999847
0,766000	0,601349	4,999847
0,767000	0,609131	4,999847
0,768000	0,592804	4,999847
0,769000	0,608673	3,441467
0,770000	0,596771	3,790283
0,771000	0,616302	4,567108
0,772000	0,596771	4,999847
0,773000	0,615997	4,999847
0,774000	0,597839	4,999847
0,775000	0,612946	4,999847
0,776000	0,614014	4,999847
0,777000	0,622559	4,999847
0,778000	0,622406	4,544220
0,779000	0,619812	3,868256
0,780000	0,627289	2,914886
0,781000	0,617828	4,123840
0,782000	0,636292	4,976654
0,783000	0,622711	4,999847
0,784000	0,640259	4,999847
0,785000	0,620575	4,999847
0,786000	0,644379	4,999847
0,787000	0,620270	4,999847
0,788000	0,637207	4,310760
0,789000	0,624084	3,846741
0,790000	0,634613	2,954559
0,791000	0,629730	4,877930
0,792000	0,628357	4,999847
0,793000	0,628815	4,999847
0,794000	0,618286	4,999847
0,795000	0,632172	4,999847
0,796000	0,614777	4,999847
0,797000	0,636749	4,999847
0,798000	0,611267	4,999847
0,799000	0,642853	4,135132
0,800000	0,609741	2,786713
0,801000	0,646973	4,695587
0,802000	0,621643	4,666290
0,803000	0,647278	4,999847
0,804000	0,632324	4,999847
0,805000	0,605011	4,999847
0,806000	0,621033	4,999847
0,807000	0,626221	4,999847
0,808000	0,639801	4,802856
0,809000	0,630493	4,371185
0,810000	0,652924	2,561340
0,811000	0,626678	4,999847
0,812000	0,659790	4,999847
0,813000	0,624237	4,999847
0,814000	0,665894	4,999847
0,815000	0,622864	4,999847
0,816000	0,665131	4,999847
0,817000	0,633545	4,999847
0,818000	0,657654	4,899292
0,819000	0,639954	4,812775
0,820000	0,650482	2,455597
0,821000	0,653076	2,995453
0,822000	0,647430	4,955902
0,823000	0,660706	4,999847
0,824000	0,643311	4,999847
0,825000	0,670013	4,999847
0,826000	0,638885	4,999847
0,827000	0,676117	4,999847
0,828000	0,634308	4,999847
0,829000	0,683594	3,620148
0,830000	0,637665	3,208160
0,831000	0,677795	4,592285
0,832000	0,647888	4,999847
0,833000	0,667572	4,999847
0,834000	0,657196	4,999847
0,835000	0,663147	4,999847
0,836000	0,667725	4,999847
0,837000	0,657959	4,999847
0,838000	0,675812	4,999847
0,839000	0,651550	3,638153
0,840000	0,678558	3,321686
0,841000	0,641479	4,506836
0,842000	0,689697	4,044647
0,843000	0,637970	4,938049
0,844000	0,695648	4,999847
0,845000	0,642548	4,999847
0,846000	0,685120	4,999847
0,847000	0,628510	4,999847
0,848000	0,605011	4,999847
0,849000	0,592346	4,320526
0,850000	0,632019	3,463745
0,851000	0,643158	4,439850
0,852000	0,670319	4,999847
0,853000	0,652771	4,999847
0,854000	0,687256	4,999847
0,855000	0,651703	4,999847
0,856000	0,699005	4,999847
0,857000	0,646210	4,999847
0,858000	0,706635	4,999847
0,859000	0,650635	3,469238
0,860000	0,704651	3,621979
0,861000	0,661011	2,975464
0,862000	0,691833	4,999847
0,863000	0,673828	4,999847
0,864000	0,681000	4,999847
0,865000	0,683746	4,999847
0,866000	0,668488	4,999847
0,867000	0,691071	4,999847
0,868000	0,654144	4,999847
0,869000	0,700684	3,700867
0,870000	0,652008	2,669525
0,871000	0,711060	4,232483
0,872000	0,643616	4,646301
0,873000	0,720825	4,999847
0,874000	0,655670	4,999847
0,875000	0,708160	4,999847
0,876000	0,671997	4,999847
0,877000	0,702209	4,999847
0,878000	0,689240	4,999847
0,879000	0,689545	4,534149
0,880000	0,697327	2,726746
0,881000	0,685272	4,509583
0,882000	0,714264	3,647614
0,883000	0,674286	4,999847
0,884000	0,721741	4,999847
0,885000	0,666199	4,999847
0,886000	0,732727	4,999847
0,887000	0,667725	4,999847
0,888000	0,743103	4,761963
0,889000	0,685730	2,401581
0,890000	0,733795	3,685455
0,891000	0,700378	4,999847
0,892000	0,724792	4,754486
0,893000	0,712433	4,999847
0,894000	0,706940	4,999847
0,895000	0,720215	4,999847
0,896000	0,685883	4,999847
0,897000	0,724792	4,999847
0,898000	0,678101	4,848480
0,899000	0,737152	3,819427
0,900000	0,656281	2,575531
0,901000	0,742493	4,378204
0,902000	0,662842	4,999847
0,903000	0,747681	4,999847
0,904000	0,690002	4,999847
0,905000	0,740814	4,999847
0,906000	0,708618	4,999847
0,907000	0,688019	4,999847
0,908000	0,702820	4,936676
0,909000	0,695343	2,197418
0,910000	0,723877	3,807220
0,911000	0,694122	4,319153
0,912000	0,745697	4,999847
0,913000	0,686493	4,999847
0,914000	0,757904	4,999847
0,915000	0,684357	4,999847
0,916000	0,773773	4,999847
0,917000	0,696259	4,999847
0,918000	0,774994	4,789581
0,919000	0,713043	4,277191
0,920000	0,754395	4,752502
0,921000	0,728912	3,759155
0,922000	0,741119	4,275360
0,923000	0,737457	4,999847
0,924000	0,685730	4,999847
0,925000	0,727844	4,999847
0,926000	0,662231	4,999847
0,927000	0,738220	4,999847
0,928000	0,650635	4,282684
0,929000	0,751801	2,996979
0,930000	0,643463	3,015900
0,931000	0,743713	4,999847
0,932000	0,667419	4,999847
0,933000	0,782471	4,999847
0,934000	0,746613	4,999847
0,935000	0,812378	4,999847
0,936000	0,780334	4,999847
0,937000	0,774384	4,999847
0,938000	0,773621	4,736176
0,939000	0,794067	3,651428
0,940000	0,814667	3,702393
0,941000	0,780945	3,127136
0,942000	0,824432	4,136810
0,943000	0,794220	4,999847
0,944000	0,844727	4,999847
0,945000	0,778656	4,999847
0,946000	0,849304	4,999847
0,947000	0,818024	4,999847
0,948000	0,854797	4,645691
0,949000	0,822906	3,597870
0,950000	0,851135	3,122253
0,951000	0,829010	4,365387
0,952000	0,823364	4,999847
0,953000	0,823975	4,999847
0,954000	0,799255	4,999847
0,955000	0,828552	4,999847
0,956000	0,789948	4,999847
0,957000	0,841370	4,999847
0,958000	0,769501	4,999847
0,959000	0,847168	4,109955
0,960000	0,780182	4,226685
0,961000	0,853882	3,412018
0,962000	0,795135	3,822784
0,963000	0,850372	4,999847
0,964000	0,809631	4,999847
0,965000	0,843201	4,999847
0,966000	0,827026	4,999847
0,967000	0,824127	4,999847
0,968000	0,836182	4,999847
0,969000	0,802155	2,579956
0,970000	0,843658	4,999847
0,971000	0,789185	4,082031
0,972000	0,851288	4,999847
0,973000	0,773163	4,999847
0,974000	0,860291	4,999847
0,975000	0,795746	4,999847
0,976000	0,858612	4,999847
0,977000	0,817108	4,999847
0,978000	0,855255	4,999847
0,979000	0,832367	4,356384
0,980000	0,851593	3,255157
0,981000	0,848236	3,104858
0,982000	0,829010	4,922943
0,983000	0,849457	4,999847
0,984000	0,811462	4,999847
0,985000	0,854340	4,999847
0,986000	0,807037	4,999847
0,987000	0,857391	4,999847
0,988000	0,782013	4,999847
0,989000	0,858612	3,584595
0,990000	0,800934	4,693298
0,991000	0,858917	4,600525
0,992000	0,827637	4,999847
0,993000	0,855408	4,999847
0,994000	0,842285	4,999847
0,995000	0,842743	4,999847
0,996000	0,849152	4,999847
0,997000	0,843964	4,999847
0,998000	0,857391	4,999847
0,999000	0,807190	3,683319

