LabVIEW Measurement	
Writer_Version	2
Reader_Version	2
Separator	Tab
Decimal_Separator	,
Multi_Headings	Yes
X_Columns	One
Time_Pref	Absolute
Operator	d.nicolai
Date	2023/11/09
Time	16:04:05,6565121999996605588
***End_of_Header***	
	
Channels	2		
Samples	1000	1000	
Date	2023/11/09	2023/11/09	
Time	16:04:24,8045124999995839251	16:04:24,8045124999995839251	
Y_Unit_Label	Volts	Volts	
X_Dimension	Time	Time	
X0	0,0000000000000000E+0	0,0000000000000000E+0	
Delta_X	0,001000	0,001000	
***End_of_Header***			
X_Value	powebox	triggerbox	Comment
0,000000	0,696259	0,762939
0,001000	0,679016	4,558563
0,002000	0,678558	4,316711
0,003000	0,681915	4,999847
0,004000	0,677643	4,999847
0,005000	0,673676	4,999847
0,006000	0,670624	4,999847
0,007000	0,664062	4,999847
0,008000	0,660706	4,653168
0,009000	0,657043	3,421478
0,010000	0,655975	1,738892
0,011000	0,649414	4,999847
0,012000	0,645447	4,970703
0,013000	0,641937	4,999847
0,014000	0,662231	4,999847
0,015000	0,678864	4,999847
0,016000	0,677643	4,999847
0,017000	0,673981	4,999847
0,018000	0,667267	4,999847
0,019000	0,669708	3,634796
0,020000	0,669861	4,194489
0,021000	0,670319	3,879547
0,022000	0,646667	4,151154
0,023000	0,634155	4,999847
0,024000	0,626526	4,999847
0,025000	0,627899	4,999847
0,026000	0,634308	4,999847
0,027000	0,639496	4,999847
0,028000	0,643921	4,914398
0,029000	0,645142	3,738251
0,030000	0,639801	3,561401
0,031000	0,645142	3,881226
0,032000	0,646057	4,999847
0,033000	0,647430	4,999847
0,034000	0,619049	4,999847
0,035000	0,541840	4,999847
0,036000	0,579834	4,999847
0,037000	0,613403	4,999847
0,038000	0,631561	4,999847
0,039000	0,637970	3,911743
0,040000	0,639496	1,799927
0,041000	0,642090	4,497223
0,042000	0,643158	4,212646
0,043000	0,642548	4,999847
0,044000	0,644531	4,999847
0,045000	0,639954	4,999847
0,046000	0,639191	4,999847
0,047000	0,639648	4,999847
0,048000	0,641327	4,574432
0,049000	0,637970	3,200226
0,050000	0,640411	2,494507
0,051000	0,629120	4,999847
0,052000	0,624084	4,999847
0,053000	0,610504	4,999847
0,054000	0,612640	4,999847
0,055000	0,583344	4,999847
0,056000	0,581207	4,999847
0,057000	0,598907	4,999847
0,058000	0,605774	4,999847
0,059000	0,609131	3,582458
0,060000	0,609283	3,451538
0,061000	0,608063	3,469696
0,062000	0,603790	3,995361
0,063000	0,599518	4,999847
0,064000	0,599518	4,999847
0,065000	0,600433	4,999847
0,066000	0,599976	4,999847
0,067000	0,607147	4,913330
0,068000	0,601196	4,661102
0,069000	0,597687	3,212585
0,070000	0,602112	3,518677
0,071000	0,609589	3,153992
0,072000	0,608826	4,770966
0,073000	0,605774	4,999847
0,074000	0,604401	4,999847
0,075000	0,611420	4,999847
0,076000	0,614471	4,999847
0,077000	0,613403	4,999847
0,078000	0,613403	4,999847
0,079000	0,607605	3,592224
0,080000	0,610199	3,992004
0,081000	0,608215	2,935181
0,082000	0,604095	3,888092
0,083000	0,601044	4,999847
0,084000	0,605011	4,999847
0,085000	0,607605	4,999847
0,086000	0,610657	4,999847
0,087000	0,608673	4,999847
0,088000	0,600891	4,999847
0,089000	0,599670	3,508453
0,090000	0,603790	3,384399
0,091000	0,612793	4,987946
0,092000	0,614014	4,671936
0,093000	0,614166	4,999847
0,094000	0,609894	4,999847
0,095000	0,612488	4,999847
0,096000	0,608215	4,999847
0,097000	0,609589	4,999847
0,098000	0,608368	4,999847
0,099000	0,613403	3,274536
0,100000	0,614624	4,699097
0,101000	0,617676	3,741760
0,102000	0,614014	3,881989
0,103000	0,616913	4,999847
0,104000	0,619354	4,999847
0,105000	0,617371	4,999847
0,106000	0,622253	4,999847
0,107000	0,619354	4,999847
0,108000	0,623016	4,855652
0,109000	0,609283	2,984772
0,110000	0,619812	3,168945
0,111000	0,610352	4,837036
0,112000	0,611420	4,999847
0,113000	0,609283	4,999847
0,114000	0,617218	4,999847
0,115000	0,621033	4,999847
0,116000	0,617676	4,999847
0,117000	0,624695	4,999847
0,118000	0,624237	4,999847
0,119000	0,619507	3,483582
0,120000	0,621490	1,927185
0,121000	0,623169	3,427429
0,122000	0,614624	3,924713
0,123000	0,615540	4,999847
0,124000	0,611877	4,999847
0,125000	0,621490	4,999847
0,126000	0,612030	4,999847
0,127000	0,614166	4,999847
0,128000	0,609589	4,999847
0,129000	0,614777	2,564850
0,130000	0,609589	2,646027
0,131000	0,592041	4,005585
0,132000	0,599213	4,999847
0,133000	0,605011	4,999847
0,134000	0,610657	4,999847
0,135000	0,605011	4,999847
0,136000	0,610657	4,999847
0,137000	0,605011	4,999847
0,138000	0,611267	4,999847
0,139000	0,603027	3,484955
0,140000	0,589294	2,154083
0,141000	0,602417	4,933472
0,142000	0,610809	3,864441
0,143000	0,608521	4,999847
0,144000	0,618591	4,999847
0,145000	0,612183	4,999847
0,146000	0,609741	4,999847
0,147000	0,610046	4,999847
0,148000	0,604553	4,631958
0,149000	0,598755	3,585052
0,150000	0,558167	2,975922
0,151000	0,596008	4,279327
0,152000	0,602264	4,913483
0,153000	0,623322	4,999847
0,154000	0,612183	4,999847
0,155000	0,617523	4,999847
0,156000	0,609589	4,999847
0,157000	0,601349	4,999847
0,158000	0,585937	4,999847
0,159000	0,607452	3,299713
0,160000	0,620575	4,926300
0,161000	0,624237	2,712402
0,162000	0,630646	4,630890
0,163000	0,628510	4,999847
0,164000	0,636749	4,999847
0,165000	0,626678	4,999847
0,166000	0,634918	4,999847
0,167000	0,619202	4,999847
0,168000	0,631866	3,899384
0,169000	0,616608	3,255157
0,170000	0,626526	3,753204
0,171000	0,619049	4,777679
0,172000	0,624084	4,999847
0,173000	0,621185	4,999847
0,174000	0,621796	4,999847
0,175000	0,622406	4,999847
0,176000	0,624695	4,999847
0,177000	0,637054	4,999847
0,178000	0,630646	4,999847
0,179000	0,632172	4,496002
0,180000	0,616913	3,381958
0,181000	0,628052	3,067322
0,182000	0,608673	4,234924
0,183000	0,621185	4,999847
0,184000	0,605927	4,999847
0,185000	0,616608	4,999847
0,186000	0,609131	4,999847
0,187000	0,612183	4,999847
0,188000	0,612335	4,810181
0,189000	0,613403	3,798370
0,190000	0,621338	2,909698
0,191000	0,615082	4,873810
0,192000	0,623627	4,999847
0,193000	0,611877	4,999847
0,194000	0,625000	4,999847
0,195000	0,608978	4,999847
0,196000	0,629730	4,999847
0,197000	0,606232	4,999847
0,198000	0,628052	4,999847
0,199000	0,612946	4,178772
0,200000	0,623016	4,883728
0,201000	0,616150	3,224640
0,202000	0,617828	4,912872
0,203000	0,622253	4,999847
0,204000	0,620270	4,999847
0,205000	0,624847	4,999847
0,206000	0,619659	4,999847
0,207000	0,634308	4,999847
0,208000	0,616455	4,999847
0,209000	0,636292	3,140564
0,210000	0,611877	2,857056
0,211000	0,640259	4,999847
0,212000	0,616150	4,751587
0,213000	0,638733	4,999847
0,214000	0,625305	4,999847
0,215000	0,636139	4,999847
0,216000	0,633850	4,999847
0,217000	0,634918	4,999847
0,218000	0,638275	4,999847
0,219000	0,632629	3,835144
0,220000	0,643005	4,008484
0,221000	0,626068	3,511047
0,222000	0,646515	4,999847
0,223000	0,536194	4,999847
0,224000	0,603638	4,999847
0,225000	0,597382	4,999847
0,226000	0,643768	4,999847
0,227000	0,618896	4,886475
0,228000	0,643463	4,270325
0,229000	0,627899	3,906097
0,230000	0,640869	2,106476
0,231000	0,638885	4,201965
0,232000	0,635986	4,999847
0,233000	0,643616	4,999847
0,234000	0,630188	4,999847
0,235000	0,652008	4,999847
0,236000	0,631104	4,999847
0,237000	0,660095	4,999847
0,238000	0,626831	4,173584
0,239000	0,666351	4,281921
0,240000	0,624695	2,870483
0,241000	0,665894	2,900238
0,242000	0,639648	4,964142
0,243000	0,661469	4,716797
0,244000	0,645447	4,999847
0,245000	0,653076	4,999847
0,246000	0,652924	4,999847
0,247000	0,648041	4,999847
0,248000	0,661163	4,999847
0,249000	0,640411	3,168182
0,250000	0,667572	2,918243
0,251000	0,632935	3,800659
0,252000	0,673828	4,999847
0,253000	0,569305	4,999847
0,254000	0,651703	4,999847
0,255000	0,624695	4,999847
0,256000	0,671997	4,999847
0,257000	0,647125	4,999847
0,258000	0,670776	4,999847
0,259000	0,660706	4,423828
0,260000	0,627441	2,307739
0,261000	0,635681	4,137115
0,262000	0,643463	4,640045
0,263000	0,670929	4,999847
0,264000	0,648651	4,999847
0,265000	0,682373	4,999847
0,266000	0,646057	4,999847
0,267000	0,693359	4,999847
0,268000	0,637360	4,916534
0,269000	0,611115	3,539886
0,270000	0,676880	2,211304
0,271000	0,637512	4,209747
0,272000	0,699310	4,999847
0,273000	0,645294	4,999847
0,274000	0,690765	4,999847
0,275000	0,658569	4,999847
0,276000	0,684662	4,999847
0,277000	0,673065	4,999847
0,278000	0,679474	4,999847
0,279000	0,685120	4,205170
0,280000	0,670471	2,468567
0,281000	0,695343	3,337097
0,282000	0,666351	4,018707
0,283000	0,705261	4,999847
0,284000	0,660553	4,999847
0,285000	0,714264	4,999847
0,286000	0,655212	4,999847
0,287000	0,720978	4,999847
0,288000	0,671539	4,134979
0,289000	0,710602	3,843079
0,290000	0,682526	2,820892
0,291000	0,703888	4,795074
0,292000	0,694885	4,999847
0,293000	0,695801	4,999847
0,294000	0,706635	4,999847
0,295000	0,690002	4,999847
0,296000	0,717468	4,999847
0,297000	0,679474	4,999847
0,298000	0,725098	4,999847
0,299000	0,673981	4,649200
0,300000	0,734863	2,407379
0,301000	0,674133	4,439545
0,302000	0,741882	3,392944
0,303000	0,680237	4,999847
0,304000	0,728149	4,999847
0,305000	0,699463	4,999847
0,306000	0,717468	4,999847
0,307000	0,711670	4,999847
0,308000	0,705261	4,924927
0,309000	0,720978	2,858734
0,310000	0,694122	3,801422
0,311000	0,732117	4,487762
0,312000	0,687866	4,999847
0,313000	0,743561	4,999847
0,314000	0,676422	4,999847
0,315000	0,752563	4,999847
0,316000	0,688934	4,999847
0,317000	0,754242	4,999847
0,318000	0,699921	4,999847
0,319000	0,741272	4,299622
0,320000	0,716858	3,269348
0,321000	0,734100	3,273315
0,322000	0,732574	4,999847
0,323000	0,719147	4,999847
0,324000	0,736389	4,999847
0,325000	0,657959	4,999847
0,326000	0,720825	4,999847
0,327000	0,634003	4,999847
0,328000	0,732880	4,999847
0,329000	0,693817	3,000336
0,330000	0,778351	2,907257
0,331000	0,724487	4,980011
0,332000	0,793610	4,999847
0,333000	0,740967	4,999847
0,334000	0,785217	4,999847
0,335000	0,752411	4,999847
0,336000	0,777740	4,999847
0,337000	0,772095	4,999847
0,338000	0,764771	4,999847
0,339000	0,782776	3,912048
0,340000	0,762177	2,649231
0,341000	0,799408	4,739227
0,342000	0,753021	4,236298
0,343000	0,810852	4,999847
0,344000	0,742950	4,999847
0,345000	0,820160	4,999847
0,346000	0,763397	4,999847
0,347000	0,829620	4,999847
0,348000	0,774994	4,511261
0,349000	0,820160	2,722168
0,350000	0,788879	3,475647
0,351000	0,808411	4,214172
0,352000	0,802307	4,999847
0,353000	0,792389	4,999847
0,354000	0,812683	4,999847
0,355000	0,782318	4,999847
0,356000	0,825043	4,999847
0,357000	0,764618	4,999847
0,358000	0,834351	4,999847
0,359000	0,763245	3,791351
0,360000	0,843201	3,116455
0,361000	0,773926	3,971863
0,362000	0,816193	4,999847
0,363000	0,768585	4,999847
0,364000	0,800934	4,999847
0,365000	0,782928	4,999847
0,366000	0,795288	4,999847
0,367000	0,803070	4,999847
0,368000	0,772095	4,864044
0,369000	0,812836	3,222656
0,370000	0,760193	3,179779
0,371000	0,826721	4,369965
0,372000	0,703583	4,999847
0,373000	0,818329	4,999847
0,374000	0,746307	4,999847
0,375000	0,841522	4,999847
0,376000	0,777740	4,999847
0,377000	0,835266	4,999847
0,378000	0,791168	4,696045
0,379000	0,825500	3,537445
0,380000	0,816345	4,248352
0,381000	0,821991	3,497162
0,382000	0,839844	4,623871
0,383000	0,804291	4,999847
0,384000	0,848541	4,999847
0,385000	0,795898	4,999847
0,386000	0,857086	4,999847
0,387000	0,769806	4,999847
0,388000	0,859833	4,999847
0,389000	0,785065	2,635040
0,390000	0,860138	3,160248
0,391000	0,803375	4,703522
0,392000	0,848846	4,452515
0,393000	0,813293	4,999847
0,394000	0,839081	4,999847
0,395000	0,838013	4,999847
0,396000	0,819855	4,999847
0,397000	0,850525	4,999847
0,398000	0,813141	4,999847
0,399000	0,860443	3,624420
0,400000	0,795135	3,315277
0,401000	0,863647	3,832397
0,402000	0,804596	4,388580
0,403000	0,867004	4,999847
0,404000	0,817566	4,999847
0,405000	0,865021	4,999847
0,406000	0,830383	4,999847
0,407000	0,859985	4,999847
0,408000	0,842743	4,177551
0,409000	0,846252	3,294830
0,410000	0,852509	3,093719
0,411000	0,804443	4,953766
0,412000	0,853119	4,999847
0,413000	0,792542	4,999847
0,414000	0,862274	4,999847
0,415000	0,748901	4,999847
0,416000	0,862274	4,999847
0,417000	0,788269	4,999847
0,418000	0,867004	4,911804
0,419000	0,817566	3,652344
0,420000	0,861053	4,360962
0,421000	0,823822	4,383240
0,422000	0,833282	4,881134
0,423000	0,836029	4,999847
0,424000	0,828400	4,999847
0,425000	0,856628	4,999847
0,426000	0,815277	4,999847
0,427000	0,864716	4,999847
0,428000	0,795288	4,654388
0,429000	0,866699	2,473297
0,430000	0,788879	3,387604
0,431000	0,868988	4,708405
0,432000	0,812378	4,999847
0,433000	0,867462	4,999847
0,434000	0,829926	4,999847
0,435000	0,865173	4,999847
0,436000	0,754395	4,999847
0,437000	0,685730	4,999847
0,438000	0,654144	4,999847
0,439000	0,642395	4,091034
0,440000	0,641022	3,485718
0,441000	0,641174	4,999847
0,442000	0,635376	4,653778
0,443000	0,633087	4,999847
0,444000	0,631409	4,999847
0,445000	0,631104	4,999847
0,446000	0,628815	4,999847
0,447000	0,627899	4,999847
0,448000	0,626831	4,690247
0,449000	0,626984	2,822266
0,450000	0,626373	3,992615
0,451000	0,626068	4,999847
0,452000	0,625763	4,999847
0,453000	0,625610	4,999847
0,454000	0,625610	4,999847
0,455000	0,625610	4,999847
0,456000	0,617981	4,999847
0,457000	0,597839	4,999847
0,458000	0,596313	4,999847
0,459000	0,592957	4,548492
0,460000	0,591888	2,896576
0,461000	0,589600	3,612213
0,462000	0,591278	4,999847
0,463000	0,590973	4,999847
0,464000	0,581818	4,999847
0,465000	0,542908	4,999847
0,466000	0,475922	4,999847
0,467000	0,433044	4,999847
0,468000	0,428314	4,271240
0,469000	0,410919	3,535919
0,470000	0,480499	3,533325
0,471000	0,535889	4,702454
0,472000	0,496826	4,999847
0,473000	0,521545	4,999847
0,474000	0,556335	4,999847
0,475000	0,547028	4,999847
0,476000	0,499115	4,999847
0,477000	0,539703	4,999847
0,478000	0,541840	4,999847
0,479000	0,548706	3,761444
0,480000	0,558014	4,330902
0,481000	0,569305	4,391327
0,482000	0,579529	4,999847
0,483000	0,585937	4,999847
0,484000	0,586243	4,999847
0,485000	0,588074	4,999847
0,486000	0,593262	4,999847
0,487000	0,575867	4,999847
0,488000	0,514374	4,220886
0,489000	0,494537	3,116455
0,490000	0,534210	4,160309
0,491000	0,564270	4,098358
0,492000	0,577087	4,999847
0,493000	0,580750	4,999847
0,494000	0,583344	4,999847
0,495000	0,584259	4,999847
0,496000	0,592499	4,999847
0,497000	0,593109	4,999847
0,498000	0,592194	4,639587
0,499000	0,583954	3,815613
0,500000	0,577545	2,768097
0,501000	0,575562	4,280853
0,502000	0,572968	4,580078
0,503000	0,570526	4,999847
0,504000	0,565033	4,999847
0,505000	0,564423	4,999847
0,506000	0,564880	4,999847
0,507000	0,564423	4,989166
0,508000	0,567474	4,892120
0,509000	0,567474	3,420105
0,510000	0,570221	4,034576
0,511000	0,553894	4,651184
0,512000	0,472260	4,999847
0,513000	0,522766	4,999847
0,514000	0,551300	4,999847
0,515000	0,570068	4,999847
0,516000	0,578918	4,999847
0,517000	0,592804	4,999847
0,518000	0,602417	4,999847
0,519000	0,604095	4,140930
0,520000	0,606232	2,242737
0,521000	0,605011	4,629669
0,522000	0,606384	3,915558
0,523000	0,600739	4,994507
0,524000	0,594177	4,999847
0,525000	0,595703	4,999847
0,526000	0,592804	4,999847
0,527000	0,574341	4,999847
0,528000	0,578156	4,999847
0,529000	0,580750	2,940063
0,530000	0,584869	3,046570
0,531000	0,584869	4,999847
0,532000	0,584106	4,999847
0,533000	0,581055	4,999847
0,534000	0,585480	4,999847
0,535000	0,591125	4,999847
0,536000	0,588379	4,999847
0,537000	0,582886	4,999847
0,538000	0,585480	4,999847
0,539000	0,589142	3,462524
0,540000	0,588837	3,218842
0,541000	0,586243	4,999847
0,542000	0,579376	4,820251
0,543000	0,582123	4,999847
0,544000	0,578156	4,999847
0,545000	0,578003	4,999847
0,546000	0,567474	4,999847
0,547000	0,570679	4,789429
0,548000	0,578003	4,999847
0,549000	0,579834	3,091888
0,550000	0,578766	3,524323
0,551000	0,582733	4,999847
0,552000	0,581818	4,773407
0,553000	0,583954	4,999847
0,554000	0,581665	4,999847
0,555000	0,580292	4,999847
0,556000	0,587463	4,999847
0,557000	0,584106	4,999847
0,558000	0,563507	4,999847
0,559000	0,525665	3,419952
0,560000	0,537872	4,142761
0,561000	0,559998	3,624268
0,562000	0,575867	4,999847
0,563000	0,576324	4,999847
0,564000	0,589447	4,999847
0,565000	0,592804	4,999847
0,566000	0,590363	4,999847
0,567000	0,566101	4,999847
0,568000	0,568848	4,999847
0,569000	0,586090	2,645569
0,570000	0,583496	3,918762
0,571000	0,587921	4,999847
0,572000	0,587463	4,999847
0,573000	0,589600	4,999847
0,574000	0,585175	4,999847
0,575000	0,583801	4,999847
0,576000	0,583649	4,999847
0,577000	0,583649	4,999847
0,578000	0,585632	4,979095
0,579000	0,579987	3,239288
0,580000	0,583191	4,403229
0,581000	0,583801	4,769287
0,582000	0,588989	4,602966
0,583000	0,543976	4,999847
0,584000	0,570374	4,999847
0,585000	0,579987	4,999847
0,586000	0,594940	4,999847
0,587000	0,591583	4,949951
0,588000	0,599823	4,959717
0,589000	0,608521	1,947784
0,590000	0,612488	4,561462
0,591000	0,609283	4,999847
0,592000	0,608063	4,999847
0,593000	0,615540	4,999847
0,594000	0,600128	4,999847
0,595000	0,602570	4,999847
0,596000	0,599518	4,999847
0,597000	0,609741	4,999847
0,598000	0,574646	4,999847
0,599000	0,592804	3,569794
0,600000	0,596161	4,600983
0,601000	0,604858	3,499603
0,602000	0,602112	4,822083
0,603000	0,613708	4,999847
0,604000	0,620422	4,999847
0,605000	0,623474	4,999847
0,606000	0,618286	4,999847
0,607000	0,561981	4,999847
0,608000	0,569611	4,401703
0,609000	0,594940	2,759094
0,610000	0,624695	2,920837
0,611000	0,617828	4,194794
0,612000	0,638123	4,999847
0,613000	0,627747	4,999847
0,614000	0,638428	4,999847
0,615000	0,621033	4,999847
0,616000	0,631561	4,999847
0,617000	0,628052	4,999847
0,618000	0,630798	4,898071
0,619000	0,631104	3,602448
0,620000	0,628662	4,999847
0,621000	0,631256	3,387909
0,622000	0,624237	4,271240
0,623000	0,632324	4,999847
0,624000	0,614166	4,999847
0,625000	0,625305	4,999847
0,626000	0,614777	4,999847
0,627000	0,634613	4,999847
0,628000	0,613708	4,313049
0,629000	0,629730	2,891235
0,630000	0,621490	3,042603
0,631000	0,634766	4,999847
0,632000	0,630646	4,999847
0,633000	0,635529	4,999847
0,634000	0,637665	4,999847
0,635000	0,630646	4,999847
0,636000	0,640564	4,999847
0,637000	0,630798	4,999847
0,638000	0,643158	4,999847
0,639000	0,625000	3,913727
0,640000	0,642853	3,291016
0,641000	0,611572	4,281464
0,642000	0,636597	4,999847
0,643000	0,609741	4,999847
0,644000	0,628204	4,999847
0,645000	0,590057	4,999847
0,646000	0,612335	4,999847
0,647000	0,616150	4,999847
0,648000	0,616913	3,886108
0,649000	0,626678	3,025208
0,650000	0,613861	4,535522
0,651000	0,633850	4,797058
0,652000	0,617218	4,999847
0,653000	0,644989	4,999847
0,654000	0,626526	4,999847
0,655000	0,653687	4,999847
0,656000	0,626678	4,999847
0,657000	0,655518	4,999847
0,658000	0,633087	4,663391
0,659000	0,650177	3,703613
0,660000	0,639954	3,954773
0,661000	0,647736	3,738098
0,662000	0,647430	4,999847
0,663000	0,623779	4,999847
0,664000	0,641174	4,999847
0,665000	0,639496	4,999847
0,666000	0,658417	4,999847
0,667000	0,639496	4,999847
0,668000	0,664825	3,961182
0,669000	0,616913	3,265686
0,670000	0,632477	3,348236
0,671000	0,617065	4,999847
0,672000	0,657349	4,999847
0,673000	0,638428	4,999847
0,674000	0,660248	4,999847
0,675000	0,652008	4,999847
0,676000	0,649261	4,999847
0,677000	0,626221	4,999847
0,678000	0,597229	4,999847
0,679000	0,623016	3,736420
0,680000	0,633087	4,510498
0,681000	0,668640	3,931580
0,682000	0,648499	4,999847
0,683000	0,682220	4,999847
0,684000	0,643158	4,999847
0,685000	0,687714	4,999847
0,686000	0,648651	4,999847
0,687000	0,680542	4,999847
0,688000	0,659485	3,715668
0,689000	0,675812	3,445740
0,690000	0,667877	2,126465
0,691000	0,669403	4,999847
0,692000	0,677338	4,999847
0,693000	0,665894	4,999847
0,694000	0,685883	4,999847
0,695000	0,648499	4,999847
0,696000	0,683594	4,999847
0,697000	0,650635	4,999847
0,698000	0,697021	4,796600
0,699000	0,652924	3,829803
0,700000	0,700684	4,211273
0,701000	0,637360	3,745270
0,702000	0,686188	4,999847
0,703000	0,646820	4,999847
0,704000	0,624084	4,999847
0,705000	0,615845	4,999847
0,706000	0,619354	4,999847
0,707000	0,682373	4,999847
0,708000	0,662689	4,600220
0,709000	0,710754	3,084259
0,710000	0,670776	3,603668
0,711000	0,719147	4,999847
0,712000	0,680847	4,999847
0,713000	0,709076	4,999847
0,714000	0,685577	4,999847
0,715000	0,698547	4,999847
0,716000	0,695801	4,999847
0,717000	0,695038	4,999847
0,718000	0,708160	4,999847
0,719000	0,696869	4,283600
0,720000	0,720520	3,805084
0,721000	0,688629	3,556213
0,722000	0,727386	4,710083
0,723000	0,680389	4,999847
0,724000	0,734253	4,999847
0,725000	0,687714	4,999847
0,726000	0,711365	4,999847
0,727000	0,636444	4,999847
0,728000	0,704346	4,999847
0,729000	0,699310	3,339844
0,730000	0,715637	1,801605
0,731000	0,717010	4,880371
0,732000	0,707397	4,999847
0,733000	0,718231	4,999847
0,734000	0,663757	4,999847
0,735000	0,718689	4,999847
0,736000	0,680389	4,999847
0,737000	0,737000	4,999847
0,738000	0,682983	4,590149
0,739000	0,751190	4,043732
0,740000	0,698395	4,835815
0,741000	0,753784	3,465576
0,742000	0,713501	4,857025
0,743000	0,740662	4,999847
0,744000	0,722351	4,999847
0,745000	0,731659	4,999847
0,746000	0,735626	4,999847
0,747000	0,724792	4,658508
0,748000	0,738831	3,860016
0,749000	0,709076	2,870178
0,750000	0,753632	3,332977
0,751000	0,702515	4,683533
0,752000	0,762329	4,999847
0,753000	0,693665	4,999847
0,754000	0,769806	4,999847
0,755000	0,712280	4,999847
0,756000	0,729675	4,999847
0,757000	0,705109	4,999847
0,758000	0,746613	4,904938
0,759000	0,737915	3,808289
0,760000	0,735016	4,843140
0,761000	0,747528	4,181671
0,762000	0,723267	4,999847
0,763000	0,758362	4,999847
0,764000	0,715332	4,999847
0,765000	0,770111	4,999847
0,766000	0,684967	4,999847
0,767000	0,771027	4,999847
0,768000	0,700684	4,765930
0,769000	0,783844	2,983093
0,770000	0,720978	3,006439
0,771000	0,772247	4,999847
0,772000	0,703583	4,999847
0,773000	0,745239	4,999847
0,774000	0,744476	4,999847
0,775000	0,743103	4,999847
0,776000	0,764160	4,999847
0,777000	0,700073	4,999847
0,778000	0,762177	4,999847
0,779000	0,714264	3,398743
0,780000	0,786285	3,191833
0,781000	0,708160	3,397369
0,782000	0,800476	4,824829
0,783000	0,723724	4,999847
0,784000	0,810242	4,999847
0,785000	0,747986	4,999847
0,786000	0,793152	4,999847
0,787000	0,758667	4,999847
0,788000	0,775146	4,512482
0,789000	0,777435	2,760620
0,790000	0,783691	2,449036
0,791000	0,801849	4,999847
0,792000	0,772552	4,999847
0,793000	0,813751	4,999847
0,794000	0,757599	4,999847
0,795000	0,825043	4,999847
0,796000	0,756836	4,999847
0,797000	0,841370	4,999847
0,798000	0,756378	4,411011
0,799000	0,840149	3,557281
0,800000	0,779572	4,452209
0,801000	0,833588	3,871918
0,802000	0,798798	4,999847
0,803000	0,821686	4,999847
0,804000	0,815582	4,999847
0,805000	0,749664	4,999847
0,806000	0,791016	4,999847
0,807000	0,770569	4,754486
0,808000	0,828705	4,999847
0,809000	0,759277	2,814941
0,810000	0,841827	3,875732
0,811000	0,760498	4,799652
0,812000	0,852203	4,999847
0,813000	0,771637	4,999847
0,814000	0,845795	4,999847
0,815000	0,777283	4,999847
0,816000	0,791321	4,999847
0,817000	0,783234	4,999847
0,818000	0,797119	4,999847
0,819000	0,810394	3,502350
0,820000	0,794830	4,316559
0,821000	0,836792	3,945007
0,822000	0,791321	4,999847
0,823000	0,852661	4,999847
0,824000	0,772858	4,999847
0,825000	0,860443	4,999847
0,826000	0,793152	4,999847
0,827000	0,866241	4,999847
0,828000	0,806122	4,430847
0,829000	0,849915	2,444611
0,830000	0,802155	4,219055
0,831000	0,818939	4,410553
0,832000	0,811462	4,999847
0,833000	0,813293	4,999847
0,834000	0,836792	4,999847
0,835000	0,800323	4,999847
0,836000	0,851898	4,999847
0,837000	0,789185	4,823608
0,838000	0,861969	4,697723
0,839000	0,769806	3,357849
0,840000	0,859985	4,999847
0,841000	0,763397	4,697876
0,842000	0,865326	4,729156
0,843000	0,826569	4,999847
0,844000	0,865326	4,999847
0,845000	0,842133	4,999847
0,846000	0,852966	4,999847
0,847000	0,849762	4,999847
0,848000	0,828247	4,246063
0,849000	0,858307	2,693787
0,850000	0,802612	2,416534
0,851000	0,862885	4,999847
0,852000	0,754242	4,999847
0,853000	0,860443	4,999847
0,854000	0,776825	4,999847
0,855000	0,868683	4,999847
0,856000	0,804749	4,999847
0,857000	0,866852	4,999847
0,858000	0,823517	4,999847
0,859000	0,860291	3,319397
0,860000	0,842743	3,963928
0,861000	0,841675	3,918762
0,862000	0,856476	4,999847
0,863000	0,825348	4,999847
0,864000	0,865173	4,999847
0,865000	0,791626	4,999847
0,866000	0,866547	4,999847
0,867000	0,789948	4,999847
0,868000	0,870819	4,999847
0,869000	0,802002	2,300568
0,870000	0,871124	4,261627
0,871000	0,823669	4,933167
0,872000	0,868683	4,999847
0,873000	0,758209	4,999847
0,874000	0,667572	4,999847
0,875000	0,637207	4,999847
0,876000	0,632324	4,999847
0,877000	0,629883	4,999847
0,878000	0,628815	4,999847
0,879000	0,629425	3,430786
0,880000	0,629730	4,883118
0,881000	0,630341	3,378754
0,882000	0,629425	4,999847
0,883000	0,628815	4,999847
0,884000	0,628357	4,999847
0,885000	0,627747	4,999847
0,886000	0,627289	4,999847
0,887000	0,627594	4,999847
0,888000	0,627289	4,879608
0,889000	0,627136	2,783356
0,890000	0,627441	4,414978
0,891000	0,627747	4,875946
0,892000	0,627136	4,999847
0,893000	0,627441	4,999847
0,894000	0,622711	4,999847
0,895000	0,579376	4,999847
0,896000	0,525513	4,999847
0,897000	0,542603	4,999847
0,898000	0,569000	4,581146
0,899000	0,579987	3,425903
0,900000	0,583038	4,524841
0,901000	0,591888	2,861481
0,902000	0,595245	4,992828
0,903000	0,596924	4,999847
0,904000	0,595856	4,999847
0,905000	0,599518	4,999847
0,906000	0,604095	4,999847
0,907000	0,601044	4,999847
0,908000	0,599670	3,967896
0,909000	0,602264	2,907410
0,910000	0,601349	3,621216
0,911000	0,599518	4,566345
0,912000	0,601044	4,999847
0,913000	0,588074	4,999847
0,914000	0,562439	4,999847
0,915000	0,521545	4,999847
0,916000	0,553894	4,999847
0,917000	0,572357	4,999847
0,918000	0,584869	4,999847
0,919000	0,594025	3,771210
0,920000	0,594330	4,999847
0,921000	0,588989	3,879852
0,922000	0,585480	4,999847
0,923000	0,585480	4,999847
0,924000	0,582123	4,999847
0,925000	0,573578	4,999847
0,926000	0,578613	4,999847
0,927000	0,581512	4,969330
0,928000	0,581360	4,987030
0,929000	0,581055	3,116455
0,930000	0,565796	3,209991
0,931000	0,578308	4,945984
0,932000	0,580597	4,999847
0,933000	0,577545	4,999847
0,934000	0,577545	4,999847
0,935000	0,581207	4,999847
0,936000	0,540924	4,999847
0,937000	0,511932	4,999847
0,938000	0,500488	4,999847
0,939000	0,500641	3,697662
0,940000	0,530548	4,929199
0,941000	0,562744	3,431396
0,942000	0,578461	4,999847
0,943000	0,589294	4,999847
0,944000	0,593109	4,999847
0,945000	0,593567	4,999847
0,946000	0,592346	4,999847
0,947000	0,593872	4,999847
0,948000	0,588531	4,885406
0,949000	0,587311	3,112946
0,950000	0,584106	2,669220
0,951000	0,582886	4,999847
0,952000	0,569000	4,999847
0,953000	0,565948	4,999847
0,954000	0,571899	4,999847
0,955000	0,576630	4,999847
0,956000	0,577393	4,999847
0,957000	0,576630	4,999847
0,958000	0,583344	4,999847
0,959000	0,586243	3,852081
0,960000	0,591736	4,389496
0,961000	0,592957	3,529358
0,962000	0,591583	4,999847
0,963000	0,589294	4,999847
0,964000	0,589447	4,999847
0,965000	0,548706	4,999847
0,966000	0,534515	4,999847
0,967000	0,554047	4,999847
0,968000	0,569000	4,003143
0,969000	0,572205	3,048706
0,970000	0,576019	2,627411
0,971000	0,574341	4,846802
0,972000	0,574036	4,999847
0,973000	0,570526	4,999847
0,974000	0,574036	4,999847
0,975000	0,581055	4,999847
0,976000	0,570679	4,999847
0,977000	0,537720	4,999847
0,978000	0,551147	4,602509
0,979000	0,570068	3,869476
0,980000	0,572662	4,918060
0,981000	0,579224	3,347626
0,982000	0,578156	4,999847
0,983000	0,580597	4,999847
0,984000	0,573425	4,999847
0,985000	0,561981	4,999847
0,986000	0,545197	4,999847
0,987000	0,550995	4,999847
0,988000	0,564575	4,672394
0,989000	0,570831	2,991943
0,990000	0,567474	2,782288
0,991000	0,565186	4,953003
0,992000	0,583344	4,999847
0,993000	0,581360	4,999847
0,994000	0,578918	4,999847
0,995000	0,574341	4,999847
0,996000	0,573273	4,999847
0,997000	0,565338	4,999847
0,998000	0,569611	4,877167
0,999000	0,577393	3,466034

