LabVIEW Measurement	
Writer_Version	2
Reader_Version	2
Separator	Tab
Decimal_Separator	,
Multi_Headings	Yes
X_Columns	One
Time_Pref	Absolute
Operator	d.nicolai
Date	2023/11/09
Time	16:04:05,6565121999996605588
***End_of_Header***	
	
Channels	2		
Samples	1000	1000	
Date	2023/11/09	2023/11/09	
Time	16:04:56,6775127999996496848	16:04:56,6775127999996496848	
Y_Unit_Label	Volts	Volts	
X_Dimension	Time	Time	
X0	0,0000000000000000E+0	0,0000000000000000E+0	
Delta_X	0,001000	0,001000	
***End_of_Header***			
X_Value	powebox	triggerbox	Comment
0,000000	0,792542	0,845795
0,001000	0,722198	4,387665
0,002000	0,809479	4,999847
0,003000	0,712585	4,999847
0,004000	0,825195	4,999847
0,005000	0,714417	4,999847
0,006000	0,809326	4,999847
0,007000	0,739288	4,999847
0,008000	0,792236	4,745331
0,009000	0,761261	4,391479
0,010000	0,776367	3,822327
0,011000	0,781708	4,497528
0,012000	0,762787	4,594269
0,013000	0,799866	4,906616
0,014000	0,750122	4,999847
0,015000	0,730286	4,999847
0,016000	0,738525	4,999847
0,017000	0,742340	4,999847
0,018000	0,743866	4,479218
0,019000	0,846863	3,128052
0,020000	0,747375	4,238892
0,021000	0,819702	3,834991
0,022000	0,765991	4,999847
0,023000	0,801392	4,999847
0,024000	0,785522	4,999847
0,025000	0,785370	4,999847
0,026000	0,805054	4,999847
0,027000	0,771484	4,999847
0,028000	0,816650	4,999847
0,029000	0,738983	4,322510
0,030000	0,831757	2,508698
0,031000	0,742950	3,517303
0,032000	0,855560	3,441010
0,033000	0,740509	4,999847
0,034000	0,845795	4,999847
0,035000	0,766296	4,999847
0,036000	0,829163	4,999847
0,037000	0,788574	4,999847
0,038000	0,812531	4,999847
0,039000	0,808716	3,054810
0,040000	0,797272	2,784271
0,041000	0,828857	3,957977
0,042000	0,782928	4,999847
0,043000	0,847321	4,999847
0,044000	0,770416	4,999847
0,045000	0,863800	4,999847
0,046000	0,758820	4,999847
0,047000	0,873413	4,999847
0,048000	0,763245	4,999847
0,049000	0,852356	4,170380
0,050000	0,786896	3,893890
0,051000	0,834808	3,958893
0,052000	0,808411	4,319916
0,053000	0,818787	4,197998
0,054000	0,829163	4,999847
0,055000	0,803375	4,999847
0,056000	0,848389	4,999847
0,057000	0,789490	4,999847
0,058000	0,865936	4,999847
0,059000	0,775909	3,693848
0,060000	0,878296	4,062195
0,061000	0,764160	4,350281
0,062000	0,701294	4,999847
0,063000	0,672455	4,999847
0,064000	0,659180	4,999847
0,065000	0,653076	4,999847
0,066000	0,650177	4,999847
0,067000	0,648804	4,999847
0,068000	0,648651	4,999847
0,069000	0,647888	4,266205
0,070000	0,647888	4,891205
0,071000	0,648041	3,279877
0,072000	0,647278	3,796997
0,073000	0,647583	4,999847
0,074000	0,647430	4,999847
0,075000	0,647430	4,999847
0,076000	0,647430	4,999847
0,077000	0,647278	4,999847
0,078000	0,647125	4,999847
0,079000	0,647125	3,639069
0,080000	0,646973	4,252930
0,081000	0,647125	3,238831
0,082000	0,646820	4,999847
0,083000	0,536499	4,999847
0,084000	0,455170	4,999847
0,085000	0,432129	4,999847
0,086000	0,405731	4,999847
0,087000	0,413055	4,999847
0,088000	0,394745	4,999847
0,089000	0,408783	4,447327
0,090000	0,396881	3,826447
0,091000	0,406189	4,327545
0,092000	0,399933	4,577789
0,093000	0,403595	4,999847
0,094000	0,403748	4,999847
0,095000	0,402069	4,999847
0,096000	0,408020	4,999847
0,097000	0,400848	4,999847
0,098000	0,411682	4,900055
0,099000	0,399323	3,694305
0,100000	0,415649	3,600006
0,101000	0,398254	4,999847
0,102000	0,419159	4,999847
0,103000	0,399017	4,999847
0,104000	0,417938	4,999847
0,105000	0,404510	4,999847
0,106000	0,415192	4,999847
0,107000	0,409546	4,999847
0,108000	0,413208	4,669189
0,109000	0,415039	3,716888
0,110000	0,410156	4,130249
0,111000	0,419922	4,244843
0,112000	0,408325	4,420624
0,113000	0,424347	4,999847
0,114000	0,406189	4,999847
0,115000	0,429077	4,999847
0,116000	0,403748	4,999847
0,117000	0,431976	4,999847
0,118000	0,407104	4,368439
0,119000	0,427551	3,792267
0,120000	0,413971	4,826508
0,121000	0,424500	3,275909
0,122000	0,420380	4,999847
0,123000	0,420837	4,999847
0,124000	0,426178	4,999847
0,125000	0,417938	4,999847
0,126000	0,432129	4,999847
0,127000	0,415192	4,999847
0,128000	0,438080	4,999847
0,129000	0,412445	4,288025
0,130000	0,443726	3,515015
0,131000	0,385437	3,486481
0,132000	0,432434	4,162140
0,133000	0,412292	4,999847
0,134000	0,436401	4,999847
0,135000	0,424042	4,999847
0,136000	0,433350	4,999847
0,137000	0,432129	4,999847
0,138000	0,429993	4,999847
0,139000	0,439453	3,134308
0,140000	0,425415	3,191528
0,141000	0,446930	3,557129
0,142000	0,422516	4,999847
0,143000	0,452881	4,999847
0,144000	0,418854	4,999847
0,145000	0,459137	4,999847
0,146000	0,419159	4,999847
0,147000	0,455322	4,999847
0,148000	0,428467	4,752045
0,149000	0,449066	4,047089
0,150000	0,437469	3,673401
0,151000	0,443115	3,998871
0,152000	0,445404	4,999847
0,153000	0,438080	4,999847
0,154000	0,453796	4,999847
0,155000	0,433197	4,999847
0,156000	0,460815	4,999847
0,157000	0,429382	4,999847
0,158000	0,468140	4,999847
0,159000	0,424957	3,026276
0,160000	0,473175	4,999847
0,161000	0,429382	3,050385
0,162000	0,465240	4,748230
0,163000	0,439911	4,999847
0,164000	0,458374	4,999847
0,165000	0,450134	4,999847
0,166000	0,451965	4,999847
0,167000	0,459442	4,999847
0,168000	0,445862	4,999847
0,169000	0,468292	4,383087
0,170000	0,440826	3,198242
0,171000	0,476532	4,762421
0,172000	0,435944	3,469543
0,173000	0,484314	4,999847
0,174000	0,431213	4,999847
0,175000	0,484619	4,999847
0,176000	0,441437	4,999847
0,177000	0,475616	4,999847
0,178000	0,453644	4,442139
0,179000	0,468140	4,228210
0,180000	0,464020	4,999847
0,181000	0,460968	2,310181
0,182000	0,474701	4,999847
0,183000	0,454559	4,999847
0,184000	0,484161	4,999847
0,185000	0,448151	4,999847
0,186000	0,492859	4,999847
0,187000	0,442352	4,999847
0,188000	0,501556	4,999847
0,189000	0,440979	4,741516
0,190000	0,495911	2,487946
0,191000	0,454712	4,258270
0,192000	0,485535	4,443665
0,193000	0,467072	4,999847
0,194000	0,476837	4,999847
0,195000	0,478668	4,999847
0,196000	0,468597	4,999847
0,197000	0,489807	4,999847
0,198000	0,461273	4,984894
0,199000	0,499573	4,031067
0,200000	0,454102	3,322906
0,201000	0,509338	3,946381
0,202000	0,448456	4,999847
0,203000	0,516663	4,999847
0,204000	0,453644	4,999847
0,205000	0,505524	4,999847
0,206000	0,468140	4,999847
0,207000	0,495148	4,999847
0,208000	0,482025	4,926758
0,209000	0,485535	3,829651
0,210000	0,494537	4,457703
0,211000	0,476990	4,119110
0,212000	0,506287	4,948883
0,213000	0,468903	4,999847
0,214000	0,517578	4,999847
0,215000	0,462189	4,999847
0,216000	0,528107	4,999847
0,217000	0,455933	4,999847
0,218000	0,529327	4,999847
0,219000	0,469818	3,561401
0,220000	0,539551	1,580963
0,221000	0,505066	4,745178
0,222000	0,527191	4,999847
0,223000	0,520020	4,999847
0,224000	0,516510	4,999847
0,225000	0,533905	4,999847
0,226000	0,507050	4,999847
0,227000	0,547180	4,999847
0,228000	0,498352	4,860992
0,229000	0,559235	3,830566
0,230000	0,490112	2,908325
0,231000	0,570831	4,990082
0,232000	0,486450	4,965363
0,233000	0,543823	4,999847
0,234000	0,481415	4,999847
0,235000	0,538788	4,999847
0,236000	0,516815	4,999847
0,237000	0,534058	4,999847
0,238000	0,536194	4,950867
0,239000	0,524292	4,311218
0,240000	0,551605	2,886505
0,241000	0,514832	4,999847
0,242000	0,564880	4,865875
0,243000	0,505524	4,999847
0,244000	0,578003	4,999847
0,245000	0,497894	4,999847
0,246000	0,588989	4,999847
0,247000	0,502472	4,999847
0,248000	0,573578	4,999847
0,249000	0,521851	4,451752
0,250000	0,559540	2,382050
0,251000	0,539856	4,999847
0,252000	0,545807	4,733887
0,253000	0,556183	4,237213
0,254000	0,534515	4,999847
0,255000	0,571442	4,999847
0,256000	0,524139	4,999847
0,257000	0,585327	4,999847
0,258000	0,514221	4,669342
0,259000	0,598297	3,725433
0,260000	0,506287	2,754211
0,261000	0,601044	4,273682
0,262000	0,520630	4,999847
0,263000	0,583954	4,999847
0,264000	0,540314	4,999847
0,265000	0,569611	4,999847
0,266000	0,559082	4,999847
0,267000	0,556488	4,999847
0,268000	0,575867	4,999847
0,269000	0,544434	4,393311
0,270000	0,591431	2,823792
0,271000	0,534058	4,999847
0,272000	0,606079	4,893799
0,273000	0,523987	4,999847
0,274000	0,619354	4,999847
0,275000	0,518341	4,999847
0,276000	0,612183	4,999847
0,277000	0,540314	4,999847
0,278000	0,595398	4,999847
0,279000	0,560455	3,274078
0,280000	0,579987	2,825928
0,281000	0,579681	4,999847
0,282000	0,566864	4,999847
0,283000	0,596771	4,999847
0,284000	0,555267	4,999847
0,285000	0,612640	4,999847
0,286000	0,544739	4,999847
0,287000	0,627594	4,999847
0,288000	0,534973	4,999847
0,289000	0,641174	4,722290
0,290000	0,539551	3,181000
0,291000	0,624237	4,035034
0,292000	0,561981	3,319855
0,293000	0,607300	4,999847
0,294000	0,582733	4,999847
0,295000	0,592651	4,999847
0,296000	0,601807	4,999847
0,297000	0,579071	4,999847
0,298000	0,619202	4,933624
0,299000	0,567322	3,830109
0,300000	0,635681	3,190308
0,301000	0,556946	4,264526
0,302000	0,650940	4,999847
0,303000	0,547943	4,999847
0,304000	0,655060	4,999847
0,305000	0,562592	4,999847
0,306000	0,636749	4,999847
0,307000	0,585327	4,999847
0,308000	0,620422	4,999847
0,309000	0,606537	4,137878
0,310000	0,605621	2,828522
0,311000	0,625763	4,830322
0,312000	0,592346	4,642029
0,313000	0,643158	4,999847
0,314000	0,581055	4,999847
0,315000	0,659637	4,999847
0,316000	0,571289	4,999847
0,317000	0,674744	4,999847
0,318000	0,563202	4,686279
0,319000	0,668640	4,035950
0,320000	0,587463	2,053986
0,321000	0,650635	4,408112
0,322000	0,610809	4,999847
0,323000	0,634613	4,999847
0,324000	0,631714	4,999847
0,325000	0,620117	4,999847
0,326000	0,650787	4,999847
0,327000	0,607452	4,999847
0,328000	0,668488	4,999847
0,329000	0,596924	4,279633
0,330000	0,684814	2,804718
0,331000	0,587311	4,063568
0,332000	0,699615	3,929138
0,333000	0,589600	4,999847
0,334000	0,682983	4,999847
0,335000	0,614471	4,999847
0,336000	0,629272	4,999847
0,337000	0,594482	4,999847
0,338000	0,630646	4,715424
0,339000	0,648956	3,068237
0,340000	0,632324	4,290009
0,341000	0,674896	4,606323
0,342000	0,623169	4,676971
0,343000	0,694122	4,999847
0,344000	0,613251	4,999847
0,345000	0,710602	4,999847
0,346000	0,604248	4,999847
0,347000	0,717773	4,999847
0,348000	0,617676	4,788055
0,349000	0,697937	3,853760
0,350000	0,641937	4,185486
0,351000	0,681000	4,999847
0,352000	0,664368	4,108734
0,353000	0,666046	4,870605
0,354000	0,684967	4,999847
0,355000	0,653076	4,999847
0,356000	0,704193	4,999847
0,357000	0,641479	4,999847
0,358000	0,720673	4,629822
0,359000	0,630798	3,186646
0,360000	0,736694	4,173431
0,361000	0,622253	4,601898
0,362000	0,732117	4,999847
0,363000	0,646210	4,999847
0,364000	0,713654	4,999847
0,365000	0,670624	4,999847
0,366000	0,697479	4,999847
0,367000	0,692444	4,999847
0,368000	0,683136	4,999847
0,369000	0,712433	4,231873
0,370000	0,670471	2,821808
0,371000	0,731049	3,520813
0,372000	0,658417	4,914551
0,373000	0,747833	4,999847
0,374000	0,648956	4,999847
0,375000	0,763245	4,999847
0,376000	0,649567	4,999847
0,377000	0,748138	4,999847
0,378000	0,675659	4,569244
0,379000	0,729675	3,900604
0,380000	0,698700	4,584961
0,381000	0,714264	3,884735
0,382000	0,720367	4,999847
0,383000	0,699768	4,999847
0,384000	0,739899	4,999847
0,385000	0,687561	4,999847
0,386000	0,757751	4,999847
0,387000	0,676727	4,999847
0,388000	0,774078	4,999847
0,389000	0,667267	4,166107
0,390000	0,782928	3,157349
0,391000	0,678558	4,381104
0,392000	0,763092	4,876404
0,393000	0,703888	4,999847
0,394000	0,745697	4,999847
0,395000	0,727081	4,999847
0,396000	0,730743	4,999847
0,397000	0,747833	4,999847
0,398000	0,717010	4,999847
0,399000	0,766449	3,528900
0,400000	0,704803	4,435730
0,401000	0,784454	3,745270
0,402000	0,694275	4,999847
0,403000	0,800018	4,999847
0,404000	0,685272	4,999847
0,405000	0,797577	4,999847
0,406000	0,707703	4,999847
0,407000	0,743408	4,999847
0,408000	0,700378	4,999847
0,409000	0,729065	4,241638
0,410000	0,723114	3,054199
0,411000	0,715637	4,844208
0,412000	0,742798	4,999847
0,413000	0,704041	4,999847
0,414000	0,763397	4,999847
0,415000	0,695953	4,999847
0,416000	0,780334	4,999847
0,417000	0,693359	4,999847
0,418000	0,826569	4,482117
0,419000	0,682068	4,285431
0,420000	0,785217	2,594604
0,421000	0,714111	3,688965
0,422000	0,764771	4,999847
0,423000	0,735016	4,999847
0,424000	0,749664	4,999847
0,425000	0,757294	4,999847
0,426000	0,733948	4,999847
0,427000	0,769653	4,999847
0,428000	0,720215	4,999847
0,429000	0,785828	4,681091
0,430000	0,709076	2,947083
0,431000	0,801849	4,192505
0,432000	0,699615	4,910889
0,433000	0,812073	4,999847
0,434000	0,708160	4,999847
0,435000	0,793457	4,999847
0,436000	0,732117	4,999847
0,437000	0,776062	4,999847
0,438000	0,727386	4,883575
0,439000	0,725250	3,626404
0,440000	0,758362	3,030853
0,441000	0,738831	4,905701
0,442000	0,788116	4,999847
0,443000	0,733490	4,999847
0,444000	0,808105	4,999847
0,445000	0,724335	4,999847
0,446000	0,825653	4,999847
0,447000	0,715790	4,999847
0,448000	0,826111	4,999847
0,449000	0,735016	4,260559
0,450000	0,808868	3,733673
0,451000	0,758514	3,348236
0,452000	0,792694	4,999847
0,453000	0,726776	4,999847
0,454000	0,737762	4,999847
0,455000	0,742645	4,999847
0,456000	0,814667	4,999847
0,457000	0,770416	4,999847
0,458000	0,820007	4,909821
0,459000	0,751190	3,656006
0,460000	0,833893	3,297424
0,461000	0,738831	2,955933
0,462000	0,850067	4,999847
0,463000	0,734558	4,999847
0,464000	0,837402	4,999847
0,465000	0,758972	4,999847
0,466000	0,820312	4,999847
0,467000	0,781555	4,999847
0,468000	0,804901	4,999847
0,469000	0,802155	4,378662
0,470000	0,789642	2,528381
0,471000	0,821686	4,361420
0,472000	0,775604	4,987946
0,473000	0,840607	4,999847
0,474000	0,763245	4,999847
0,475000	0,857239	4,999847
0,476000	0,752258	4,999847
0,477000	0,867157	4,999847
0,478000	0,758667	4,602051
0,479000	0,846710	4,483337
0,480000	0,782166	2,847900
0,481000	0,829926	4,776764
0,482000	0,803833	4,999847
0,483000	0,814362	4,999847
0,484000	0,824890	4,999847
0,485000	0,799408	4,999847
0,486000	0,843964	4,999847
0,487000	0,784912	4,999847
0,488000	0,861359	4,999847
0,489000	0,772400	4,111328
0,490000	0,875397	2,817230
0,491000	0,760956	4,176178
0,492000	0,870056	4,999847
0,493000	0,777588	4,999847
0,494000	0,849915	4,999847
0,495000	0,800629	4,999847
0,496000	0,832825	4,999847
0,497000	0,822144	4,999847
0,498000	0,816650	4,999847
0,499000	0,725555	3,135071
0,500000	0,684204	2,445221
0,501000	0,664825	4,092865
0,502000	0,655823	4,999847
0,503000	0,651855	4,999847
0,504000	0,650330	4,999847
0,505000	0,649261	4,999847
0,506000	0,648651	4,999847
0,507000	0,648499	4,999847
0,508000	0,648193	4,999847
0,509000	0,648193	4,036865
0,510000	0,648193	2,640533
0,511000	0,647888	4,999847
0,512000	0,647430	4,400787
0,513000	0,647583	4,999847
0,514000	0,647736	4,999847
0,515000	0,647888	4,999847
0,516000	0,647583	4,999847
0,517000	0,640717	4,999847
0,518000	0,644684	4,999847
0,519000	0,634460	3,138580
0,520000	0,589905	2,772675
0,521000	0,492249	4,999847
0,522000	0,438538	4,999847
0,523000	0,420685	4,999847
0,524000	0,409393	4,999847
0,525000	0,405121	4,999847
0,526000	0,406342	4,999847
0,527000	0,400543	4,999847
0,528000	0,408173	4,999847
0,529000	0,399017	3,782196
0,530000	0,411072	2,955170
0,531000	0,397491	4,792328
0,532000	0,414124	4,945221
0,533000	0,396423	4,882355
0,534000	0,414124	4,999847
0,535000	0,401459	4,999847
0,536000	0,412140	4,999847
0,537000	0,406036	4,999847
0,538000	0,410156	4,694519
0,539000	0,410461	3,466797
0,540000	0,401611	3,441010
0,541000	0,385437	4,999847
0,542000	0,393372	4,999847
0,543000	0,412903	4,999847
0,544000	0,402222	4,999847
0,545000	0,422058	4,999847
0,546000	0,402374	4,999847
0,547000	0,427094	4,999847
0,548000	0,404358	4,999847
0,549000	0,424957	4,388275
0,550000	0,410004	3,378143
0,551000	0,421753	4,553680
0,552000	0,415497	4,010773
0,553000	0,419006	4,999847
0,554000	0,421143	4,999847
0,555000	0,416107	4,999847
0,556000	0,426941	4,999847
0,557000	0,413818	4,999847
0,558000	0,431976	4,999847
0,559000	0,411377	3,818512
0,560000	0,437622	3,730316
0,561000	0,409698	4,234161
0,562000	0,439911	4,999847
0,563000	0,413666	4,999847
0,564000	0,436249	4,999847
0,565000	0,420990	4,999847
0,566000	0,431824	4,999847
0,567000	0,428009	4,999847
0,568000	0,428162	4,999847
0,569000	0,434875	4,257812
0,570000	0,425720	3,087921
0,571000	0,442657	4,999847
0,572000	0,440674	4,196014
0,573000	0,466461	4,999847
0,574000	0,437317	4,999847
0,575000	0,472565	4,999847
0,576000	0,434265	4,999847
0,577000	0,471802	4,999847
0,578000	0,443268	4,999847
0,579000	0,465851	2,711487
0,580000	0,451508	4,060364
0,581000	0,460968	3,447876
0,582000	0,459290	4,809570
0,583000	0,455933	4,999847
0,584000	0,467072	4,999847
0,585000	0,451355	4,999847
0,586000	0,475006	4,999847
0,587000	0,446625	4,999847
0,588000	0,481567	4,676361
0,589000	0,442810	4,382172
0,590000	0,488586	3,728790
0,591000	0,443878	3,827972
0,592000	0,482941	4,409485
0,593000	0,454254	4,999847
0,594000	0,476532	4,999847
0,595000	0,464325	4,999847
0,596000	0,470734	4,999847
0,597000	0,473938	4,999847
0,598000	0,463715	4,422302
0,599000	0,481415	3,229065
0,600000	0,458527	2,744598
0,601000	0,490112	4,487457
0,602000	0,454407	4,747772
0,603000	0,498199	4,999847
0,604000	0,450592	4,999847
0,605000	0,502625	4,999847
0,606000	0,455933	4,999847
0,607000	0,493927	4,999847
0,608000	0,467377	4,999847
0,609000	0,486450	4,570770
0,610000	0,478516	3,301086
0,611000	0,479584	3,867187
0,612000	0,488129	4,999847
0,613000	0,473175	4,999847
0,614000	0,493011	4,999847
0,615000	0,464783	4,999847
0,616000	0,506287	4,999847
0,617000	0,460968	4,999847
0,618000	0,515442	4,765472
0,619000	0,456085	2,717743
0,620000	0,515137	3,746490
0,621000	0,469208	3,952026
0,622000	0,505524	4,999847
0,623000	0,481720	4,999847
0,624000	0,495911	4,999847
0,625000	0,492554	4,999847
0,626000	0,487671	4,999847
0,627000	0,503082	4,999847
0,628000	0,479279	4,812622
0,629000	0,513153	4,439392
0,630000	0,472717	4,026947
0,631000	0,523529	3,426361
0,632000	0,465393	4,999847
0,633000	0,531921	4,999847
0,634000	0,465851	4,999847
0,635000	0,525055	4,999847
0,636000	0,481415	4,999847
0,637000	0,514374	4,999847
0,638000	0,494690	4,999847
0,639000	0,504303	3,630829
0,640000	0,507660	3,656006
0,641000	0,496063	3,828278
0,642000	0,519867	4,999847
0,643000	0,455475	4,999847
0,644000	0,488129	4,999847
0,645000	0,451660	4,999847
0,646000	0,528107	4,999847
0,647000	0,468445	4,999847
0,648000	0,546112	4,816742
0,649000	0,479889	4,284973
0,650000	0,535736	3,168793
0,651000	0,496368	3,725433
0,652000	0,524292	4,768219
0,653000	0,511475	4,999847
0,654000	0,514221	4,999847
0,655000	0,525208	4,999847
0,656000	0,504608	4,999847
0,657000	0,537720	4,999847
0,658000	0,496368	4,999847
0,659000	0,549622	4,403534
0,660000	0,488586	3,348541
0,661000	0,560608	4,520721
0,662000	0,481720	4,999847
0,663000	0,560760	4,999847
0,664000	0,496368	4,999847
0,665000	0,546875	4,999847
0,666000	0,513153	4,999847
0,667000	0,534973	4,999847
0,668000	0,528717	4,833527
0,669000	0,523529	4,284363
0,670000	0,542755	3,554535
0,671000	0,513611	3,938446
0,672000	0,556030	4,885254
0,673000	0,504150	4,999847
0,674000	0,568237	4,999847
0,675000	0,496063	4,999847
0,676000	0,580139	4,999847
0,677000	0,493317	4,999847
0,678000	0,571289	4,470673
0,679000	0,512238	4,002686
0,680000	0,556488	3,104095
0,681000	0,529785	4,049530
0,682000	0,543976	4,999847
0,683000	0,546265	4,999847
0,684000	0,531616	4,999847
0,685000	0,561066	4,999847
0,686000	0,521851	4,999847
0,687000	0,574646	4,999847
0,688000	0,512238	4,999847
0,689000	0,587616	3,625031
0,690000	0,503845	3,929596
0,691000	0,597687	3,613129
0,692000	0,509796	4,999847
0,693000	0,581512	4,999847
0,694000	0,529938	4,999847
0,695000	0,567017	4,999847
0,696000	0,548401	4,999847
0,697000	0,553589	4,999847
0,698000	0,565186	4,478302
0,699000	0,541534	3,121033
0,700000	0,580444	3,169403
0,701000	0,530548	3,389282
0,702000	0,594940	4,999847
0,703000	0,521698	4,999847
0,704000	0,608368	4,999847
0,705000	0,513153	4,999847
0,706000	0,609436	4,999847
0,707000	0,529022	4,999847
0,708000	0,592499	4,999847
0,709000	0,549011	4,117126
0,710000	0,577698	3,808136
0,711000	0,568085	3,369751
0,712000	0,563660	4,999847
0,713000	0,585022	4,999847
0,714000	0,551605	4,999847
0,715000	0,601501	4,999847
0,716000	0,540924	4,999847
0,717000	0,615845	4,999847
0,718000	0,531311	4,680328
0,719000	0,629425	3,307953
0,720000	0,526581	3,875122
0,721000	0,620575	4,055328
0,722000	0,549011	4,999847
0,723000	0,603180	4,999847
0,724000	0,569305	4,999847
0,725000	0,588531	4,999847
0,726000	0,588989	4,999847
0,727000	0,574646	4,999847
0,728000	0,606842	4,469604
0,729000	0,562744	4,053802
0,730000	0,622711	4,069672
0,731000	0,552368	2,961273
0,732000	0,637817	4,999847
0,733000	0,542450	4,464874
0,734000	0,651093	4,999847
0,735000	0,548859	4,999847
0,736000	0,633240	4,999847
0,737000	0,571747	4,999847
0,738000	0,615540	4,396210
0,739000	0,592346	3,397827
0,740000	0,601196	3,648071
0,741000	0,612488	3,472443
0,742000	0,588074	4,999847
0,743000	0,630341	4,999847
0,744000	0,576172	4,999847
0,745000	0,626221	4,999847
0,746000	0,546722	4,999847
0,747000	0,653229	4,999847
0,748000	0,552826	4,999847
0,749000	0,663147	4,870453
0,750000	0,572662	2,201385
0,751000	0,646210	4,999847
0,752000	0,596313	4,689178
0,753000	0,630493	4,999847
0,754000	0,617676	4,999847
0,755000	0,615540	4,999847
0,756000	0,637360	4,999847
0,757000	0,602570	4,999847
0,758000	0,654755	4,999847
0,759000	0,590668	4,029694
0,760000	0,671082	2,790680
0,761000	0,580597	4,222717
0,762000	0,686188	4,999847
0,763000	0,574341	4,999847
0,764000	0,678711	4,999847
0,765000	0,599365	4,999847
0,766000	0,660553	4,999847
0,767000	0,622406	4,999847
0,768000	0,644684	4,727325
0,769000	0,643311	4,141693
0,770000	0,630951	2,708130
0,771000	0,662384	4,999847
0,772000	0,617828	4,032745
0,773000	0,680389	4,999847
0,774000	0,606842	4,999847
0,775000	0,696869	4,999847
0,776000	0,597534	4,999847
0,777000	0,711517	4,999847
0,778000	0,601807	4,930878
0,779000	0,693359	3,410797
0,780000	0,626526	1,480560
0,781000	0,676117	4,999847
0,782000	0,649719	4,842529
0,783000	0,660706	4,999847
0,784000	0,670013	4,999847
0,785000	0,646973	4,999847
0,786000	0,689545	4,999847
0,787000	0,635071	4,999847
0,788000	0,707092	4,999847
0,789000	0,624390	4,746552
0,790000	0,723419	2,808228
0,791000	0,615387	3,695221
0,792000	0,728149	4,539642
0,793000	0,630035	4,701996
0,794000	0,709076	4,999847
0,795000	0,654602	4,999847
0,796000	0,691986	4,999847
0,797000	0,677338	4,999847
0,798000	0,677032	4,366760
0,799000	0,697174	2,548981
0,800000	0,663757	3,507385
0,801000	0,716248	3,640594
0,802000	0,652313	4,999847
0,803000	0,733185	4,999847
0,804000	0,641632	4,999847
0,805000	0,748901	4,999847
0,806000	0,633392	4,999847
0,807000	0,743103	4,999847
0,808000	0,659180	4,685669
0,809000	0,724792	4,240570
0,810000	0,683289	3,481750
0,811000	0,708313	4,473572
0,812000	0,704803	4,584198
0,813000	0,693207	4,999847
0,814000	0,724640	4,999847
0,815000	0,680847	4,999847
0,816000	0,742950	4,999847
0,817000	0,669403	4,999847
0,818000	0,759888	4,693298
0,819000	0,659332	2,796326
0,820000	0,775146	2,785339
0,821000	0,661621	4,999847
0,822000	0,758209	4,999847
0,823000	0,687561	4,999847
0,824000	0,740662	4,999847
0,825000	0,711060	4,999847
0,826000	0,724640	4,999847
0,827000	0,732727	4,999847
0,828000	0,710602	4,999847
0,829000	0,752411	3,818054
0,830000	0,698547	3,668060
0,831000	0,769653	3,762512
0,832000	0,687866	4,713745
0,833000	0,786438	4,999847
0,834000	0,677948	4,999847
0,835000	0,792847	4,999847
0,836000	0,690765	4,999847
0,837000	0,750580	4,999847
0,838000	0,692444	4,900818
0,839000	0,729065	3,526001
0,840000	0,712433	3,811798
0,841000	0,713959	3,604736
0,842000	0,732574	4,788055
0,843000	0,701599	4,999847
0,844000	0,751190	4,999847
0,845000	0,690613	4,999847
0,846000	0,768890	4,999847
0,847000	0,681763	4,999847
0,848000	0,758362	4,999847
0,849000	0,663300	4,198151
0,850000	0,799255	4,247437
0,851000	0,716248	3,859863
0,852000	0,787201	3,718567
0,853000	0,744019	4,999847
0,854000	0,771484	4,999847
0,855000	0,740509	4,999847
0,856000	0,731812	4,999847
0,857000	0,762024	4,999847
0,858000	0,727081	4,999847
0,859000	0,785217	3,700104
0,860000	0,715790	3,009644
0,861000	0,800934	4,160309
0,862000	0,704498	4,999847
0,863000	0,816956	4,999847
0,864000	0,701599	4,999847
0,865000	0,799255	4,999847
0,866000	0,726318	4,999847
0,867000	0,781403	4,999847
0,868000	0,750275	4,999847
0,869000	0,770111	4,393158
0,870000	0,776520	4,670563
0,871000	0,755768	3,881073
0,872000	0,794678	4,533691
0,873000	0,741119	4,999847
0,874000	0,809174	4,999847
0,875000	0,728912	4,999847
0,876000	0,825958	4,999847
0,877000	0,719452	4,999847
0,878000	0,835419	4,731903
0,879000	0,729828	3,749847
0,880000	0,816803	3,320007
0,881000	0,754700	3,741608
0,882000	0,799713	4,735718
0,883000	0,776825	4,999847
0,884000	0,783539	4,999847
0,885000	0,796661	4,999847
0,886000	0,769196	4,999847
0,887000	0,815430	4,999847
0,888000	0,757294	4,999847
0,889000	0,834503	3,757324
0,890000	0,748596	3,730621
0,891000	0,748596	4,741058
0,892000	0,756073	3,907928
0,893000	0,761261	4,999847
0,894000	0,798645	4,999847
0,895000	0,820770	4,999847
0,896000	0,798645	4,999847
0,897000	0,794830	4,999847
0,898000	0,813599	4,283447
0,899000	0,778351	3,830414
0,900000	0,830688	3,691864
0,901000	0,764923	3,851013
0,902000	0,849457	4,999847
0,903000	0,754700	4,999847
0,904000	0,875397	4,999847
0,905000	0,757294	4,999847
0,906000	0,861969	4,999847
0,907000	0,782166	4,999847
0,908000	0,844574	4,999847
0,909000	0,804443	4,329376
0,910000	0,827026	4,419556
0,911000	0,820465	2,659607
0,912000	0,808411	4,999847
0,913000	0,840149	4,999847
0,914000	0,793304	4,999847
0,915000	0,858765	4,999847
0,916000	0,780640	4,999847
0,917000	0,876007	4,999847
0,918000	0,768738	4,999847
0,919000	0,887146	3,698578
0,920000	0,773621	2,906647
0,921000	0,865784	3,238983
0,922000	0,797729	4,999847
0,923000	0,847168	4,999847
0,924000	0,819550	4,999847
0,925000	0,830841	4,999847
0,926000	0,840302	4,999847
0,927000	0,815430	4,999847
0,928000	0,840149	4,999847
0,929000	0,782623	4,404755
0,930000	0,858459	3,434143
0,931000	0,771484	4,297333
0,932000	0,873566	4,999847
0,933000	0,760651	4,999847
0,934000	0,870667	4,999847
0,935000	0,776672	4,999847
0,936000	0,852814	4,999847
0,937000	0,744324	4,999847
0,938000	0,692444	4,439087
0,939000	0,668488	3,939819
0,940000	0,657654	2,904816
0,941000	0,652466	4,660187
0,942000	0,650177	4,568634
0,943000	0,649261	4,999847
0,944000	0,648651	4,999847
0,945000	0,648499	4,999847
0,946000	0,648193	4,999847
0,947000	0,648041	4,999847
0,948000	0,647888	4,444427
0,949000	0,647736	3,807220
0,950000	0,629578	3,471680
0,951000	0,623016	4,377441
0,952000	0,636444	4,640198
0,953000	0,642395	4,999847
0,954000	0,645142	4,999847
0,955000	0,646515	4,999847
0,956000	0,647278	4,999847
0,957000	0,577087	4,999847
0,958000	0,483704	4,972534
0,959000	0,439911	3,984222
0,960000	0,419769	3,324280
0,961000	0,414581	4,688721
0,962000	0,404816	4,999847
0,963000	0,410767	4,999847
0,964000	0,401001	4,999847
0,965000	0,412445	4,999847
0,966000	0,399628	4,999847
0,967000	0,415497	4,999847
0,968000	0,400085	4,999847
0,969000	0,414886	4,572906
0,970000	0,404663	3,471832
0,971000	0,412903	2,909698
0,972000	0,408783	4,333496
0,973000	0,411224	4,999847
0,974000	0,412292	4,999847
0,975000	0,410004	4,999847
0,976000	0,416565	4,999847
0,977000	0,406036	4,999847
0,978000	0,419312	4,999847
0,979000	0,404205	2,938385
0,980000	0,422974	2,189178
0,981000	0,402832	3,825073
0,982000	0,426025	4,999847
0,983000	0,405731	4,999847
0,984000	0,424347	4,999847
0,985000	0,413818	4,999847
0,986000	0,423126	4,999847
0,987000	0,419464	4,999847
0,988000	0,421448	4,999847
0,989000	0,425415	4,743347
0,990000	0,418701	3,982544
0,991000	0,430145	3,575134
0,992000	0,417480	4,572144
0,993000	0,435181	4,999847
0,994000	0,416260	4,999847
0,995000	0,440826	4,999847
0,996000	0,415955	4,999847
0,997000	0,449371	4,999847
0,998000	0,426788	4,999847
0,999000	0,445099	3,580170

