LabVIEW Measurement	
Writer_Version	2
Reader_Version	2
Separator	Tab
Decimal_Separator	,
Multi_Headings	Yes
X_Columns	One
Time_Pref	Absolute
Operator	d.nicolai
Date	2023/11/09
Time	16:04:05,6565121999996605588
***End_of_Header***	
	
Channels	2		
Samples	1000	1000	
Date	2023/11/09	2023/11/09	
Time	16:04:33,3235121999998329843	16:04:33,3235121999998329843	
Y_Unit_Label	Volts	Volts	
X_Dimension	Time	Time	
X0	0,0000000000000000E+0	0,0000000000000000E+0	
Delta_X	0,001000	0,001000	
***End_of_Header***			
X_Value	powebox	triggerbox	Comment
0,000000	0,649567	1,115265
0,001000	0,629272	4,999847
0,002000	0,662079	2,859039
0,003000	0,620270	4,506073
0,004000	0,670166	4,999847
0,005000	0,599213	4,999847
0,006000	0,670929	4,999847
0,007000	0,610657	4,999847
0,008000	0,670471	4,718018
0,009000	0,627289	3,715668
0,010000	0,661011	3,115387
0,011000	0,644836	4,101868
0,012000	0,654297	4,419098
0,013000	0,653534	4,999847
0,014000	0,643463	4,999847
0,015000	0,670013	4,999847
0,016000	0,642853	4,999847
0,017000	0,681915	4,999847
0,018000	0,625000	4,616241
0,019000	0,685425	3,896637
0,020000	0,619202	3,591309
0,021000	0,695190	4,999847
0,022000	0,620270	3,984680
0,023000	0,679626	4,999847
0,024000	0,637665	4,999847
0,025000	0,668945	4,999847
0,026000	0,651245	4,999847
0,027000	0,655975	4,999847
0,028000	0,665741	4,999847
0,029000	0,643616	3,713684
0,030000	0,678558	4,999847
0,031000	0,644531	4,398346
0,032000	0,696869	4,999847
0,033000	0,645599	4,999847
0,034000	0,712738	4,999847
0,035000	0,646515	4,999847
0,036000	0,671997	4,999847
0,037000	0,608978	4,999847
0,038000	0,680389	4,999847
0,039000	0,662079	4,578857
0,040000	0,689697	3,908691
0,041000	0,684662	3,987579
0,042000	0,680542	4,409027
0,043000	0,697174	4,999847
0,044000	0,652618	4,999847
0,045000	0,698090	4,999847
0,046000	0,659180	4,999847
0,047000	0,721436	4,999847
0,048000	0,626373	4,355774
0,049000	0,718079	3,728485
0,050000	0,602722	4,520874
0,051000	0,706787	4,287872
0,052000	0,660706	3,996429
0,053000	0,711670	4,999847
0,054000	0,689392	4,999847
0,055000	0,706482	4,999847
0,056000	0,708466	4,999847
0,057000	0,697327	4,999847
0,058000	0,722198	4,800110
0,059000	0,679474	3,899231
0,060000	0,620117	4,999847
0,061000	0,599518	3,943634
0,062000	0,583191	4,237061
0,063000	0,568695	4,999847
0,064000	0,569000	4,999847
0,065000	0,570374	4,999847
0,066000	0,568542	4,999847
0,067000	0,563202	4,999847
0,068000	0,655518	4,237061
0,069000	0,652161	3,197784
0,070000	0,716705	3,650818
0,071000	0,663605	4,249420
0,072000	0,737610	4,999847
0,073000	0,652618	4,999847
0,074000	0,749512	4,999847
0,075000	0,658112	4,999847
0,076000	0,738678	4,999847
0,077000	0,677948	4,999847
0,078000	0,721130	4,999847
0,079000	0,695343	3,607635
0,080000	0,708313	4,294891
0,081000	0,715027	2,520752
0,082000	0,694275	3,775635
0,083000	0,729675	4,999847
0,084000	0,676727	4,999847
0,085000	0,741119	4,999847
0,086000	0,665894	4,999847
0,087000	0,723419	4,999847
0,088000	0,633545	4,404907
0,089000	0,737762	3,774261
0,090000	0,657806	4,999847
0,091000	0,731354	3,332062
0,092000	0,682678	4,999847
0,093000	0,717773	4,999847
0,094000	0,699310	4,999847
0,095000	0,707397	4,999847
0,096000	0,724945	4,999847
0,097000	0,697479	4,999847
0,098000	0,740356	4,999847
0,099000	0,689697	4,520569
0,100000	0,752716	4,999847
0,101000	0,678406	3,665466
0,102000	0,764465	4,954224
0,103000	0,672455	4,999847
0,104000	0,767059	4,999847
0,105000	0,681458	4,999847
0,106000	0,744171	4,999847
0,107000	0,701294	4,999847
0,108000	0,730286	4,483337
0,109000	0,725555	3,205566
0,110000	0,715332	3,228455
0,111000	0,739136	2,912140
0,112000	0,700836	4,999847
0,113000	0,754852	4,999847
0,114000	0,689392	4,999847
0,115000	0,768585	4,999847
0,116000	0,681763	4,999847
0,117000	0,782471	4,999847
0,118000	0,680084	4,999847
0,119000	0,775604	4,541016
0,120000	0,688782	4,094086
0,121000	0,736237	4,233551
0,122000	0,756531	3,768616
0,123000	0,765533	4,999847
0,124000	0,785370	4,999847
0,125000	0,795898	4,999847
0,126000	0,740051	4,999847
0,127000	0,747070	4,999847
0,128000	0,746307	4,988403
0,129000	0,727692	3,718719
0,130000	0,761414	4,073792
0,131000	0,710144	4,710999
0,132000	0,773773	4,999847
0,133000	0,697784	4,999847
0,134000	0,789032	4,999847
0,135000	0,678558	4,999847
0,136000	0,798187	4,999847
0,137000	0,699310	4,999847
0,138000	0,773163	4,468536
0,139000	0,678711	4,421539
0,140000	0,752716	2,074585
0,141000	0,740204	3,883820
0,142000	0,753326	3,856201
0,143000	0,766144	4,999847
0,144000	0,733337	4,999847
0,145000	0,780029	4,999847
0,146000	0,721893	4,999847
0,147000	0,796509	4,999847
0,148000	0,709991	4,966583
0,149000	0,811310	2,710419
0,150000	0,700226	4,283600
0,151000	0,822296	3,686371
0,152000	0,722961	4,999847
0,153000	0,800781	4,999847
0,154000	0,745697	4,999847
0,155000	0,779266	4,999847
0,156000	0,765076	4,999847
0,157000	0,763855	4,999847
0,158000	0,785675	4,999847
0,159000	0,748596	3,914948
0,160000	0,803680	3,157349
0,161000	0,735474	3,079376
0,162000	0,819855	4,629822
0,163000	0,724335	4,999847
0,164000	0,835419	4,999847
0,165000	0,725403	4,999847
0,166000	0,837708	4,999847
0,167000	0,749664	4,999847
0,168000	0,817719	4,982147
0,169000	0,772858	3,636017
0,170000	0,801849	2,405548
0,171000	0,794373	4,166870
0,172000	0,784302	4,999847
0,173000	0,813293	4,999847
0,174000	0,769653	4,999847
0,175000	0,830231	4,999847
0,176000	0,753784	4,999847
0,177000	0,846100	4,999847
0,178000	0,742187	4,704590
0,179000	0,861053	4,121094
0,180000	0,751343	2,990570
0,181000	0,853577	4,292755
0,182000	0,777893	4,879303
0,183000	0,835419	4,999847
0,184000	0,800171	4,999847
0,185000	0,815430	4,999847
0,186000	0,819855	4,999847
0,187000	0,800781	4,999847
0,188000	0,839386	4,108429
0,189000	0,789795	3,808594
0,190000	0,859680	4,966431
0,191000	0,777740	4,320526
0,192000	0,877533	4,999847
0,193000	0,765076	4,999847
0,194000	0,891266	4,999847
0,195000	0,786133	4,999847
0,196000	0,872955	4,999847
0,197000	0,806885	4,999847
0,198000	0,858154	4,418182
0,199000	0,830383	4,809875
0,200000	0,843201	3,185883
0,201000	0,852203	4,469604
0,202000	0,828705	4,999847
0,203000	0,872345	4,999847
0,204000	0,810242	4,999847
0,205000	0,891571	4,999847
0,206000	0,795288	4,999847
0,207000	0,902710	4,999847
0,208000	0,788727	4,308472
0,209000	0,908051	4,101105
0,210000	0,811615	3,266602
0,211000	0,895081	2,835541
0,212000	0,837555	4,999847
0,213000	0,874786	4,999847
0,214000	0,858307	4,999847
0,215000	0,853271	4,999847
0,216000	0,875854	4,999847
0,217000	0,832977	4,999847
0,218000	0,891571	4,999847
0,219000	0,816193	3,956909
0,220000	0,919037	2,944336
0,221000	0,798187	3,065948
0,222000	0,914764	4,999847
0,223000	0,809021	4,999847
0,224000	0,913391	4,999847
0,225000	0,831604	4,999847
0,226000	0,886688	4,999847
0,227000	0,851135	4,999847
0,228000	0,869904	4,999847
0,229000	0,873718	3,996735
0,230000	0,855408	3,373566
0,231000	0,893555	4,656982
0,232000	0,839233	4,564514
0,233000	0,908661	4,999847
0,234000	0,824890	4,999847
0,235000	0,918121	4,999847
0,236000	0,804596	4,999847
0,237000	0,920258	4,999847
0,238000	0,792999	4,999847
0,239000	0,723724	4,155426
0,240000	0,692291	3,541107
0,241000	0,645599	4,168243
0,242000	0,650787	3,267822
0,243000	0,658875	4,999847
0,244000	0,661926	4,999847
0,245000	0,663605	4,999847
0,246000	0,665131	4,999847
0,247000	0,665436	4,999847
0,248000	0,665283	4,884644
0,249000	0,665131	3,500824
0,250000	0,665131	2,295227
0,251000	0,602875	4,856567
0,252000	0,550385	4,927826
0,253000	0,525055	4,999847
0,254000	0,515289	4,999847
0,255000	0,516968	4,999847
0,256000	0,524750	4,999847
0,257000	0,526276	4,999847
0,258000	0,530090	4,970245
0,259000	0,531311	3,976593
0,260000	0,525665	2,810974
0,261000	0,526886	4,602814
0,262000	0,524902	3,919373
0,263000	0,521393	4,999847
0,264000	0,519104	4,999847
0,265000	0,519867	4,999847
0,266000	0,518188	4,999847
0,267000	0,522308	4,702301
0,268000	0,521240	4,533081
0,269000	0,525818	3,554840
0,270000	0,523682	3,973083
0,271000	0,518188	3,863678
0,272000	0,518494	3,931274
0,273000	0,524597	4,999847
0,274000	0,521088	4,999847
0,275000	0,522461	4,999847
0,276000	0,516663	4,999847
0,277000	0,510864	4,999847
0,278000	0,505524	4,999847
0,279000	0,501556	4,373627
0,280000	0,499115	4,999847
0,281000	0,513153	4,553375
0,282000	0,524292	3,555603
0,283000	0,527802	4,999847
0,284000	0,529938	4,999847
0,285000	0,528412	4,999847
0,286000	0,529175	4,999847
0,287000	0,520477	4,999847
0,288000	0,525360	4,999847
0,289000	0,524139	3,613892
0,290000	0,514679	3,170471
0,291000	0,507507	4,958801
0,292000	0,514221	4,999847
0,293000	0,530853	4,999847
0,294000	0,536346	4,999847
0,295000	0,537567	4,999847
0,296000	0,532684	4,999847
0,297000	0,544281	4,999847
0,298000	0,547028	4,899597
0,299000	0,557251	3,710632
0,300000	0,556030	3,479614
0,301000	0,562439	3,653107
0,302000	0,564575	3,710632
0,303000	0,565338	4,999847
0,304000	0,556335	4,999847
0,305000	0,541229	4,999847
0,306000	0,538177	4,999847
0,307000	0,543823	4,999847
0,308000	0,550995	4,599457
0,309000	0,555878	3,438873
0,310000	0,558777	4,046478
0,311000	0,559235	4,233093
0,312000	0,557709	4,587555
0,313000	0,556183	4,999847
0,314000	0,555573	4,999847
0,315000	0,556335	4,999847
0,316000	0,560913	4,999847
0,317000	0,561066	4,999847
0,318000	0,559692	4,999847
0,319000	0,558777	3,636475
0,320000	0,555725	3,035431
0,321000	0,557404	4,382935
0,322000	0,556946	3,786774
0,323000	0,558624	4,999847
0,324000	0,561523	4,999847
0,325000	0,564423	4,999847
0,326000	0,561218	4,999847
0,327000	0,551910	4,999847
0,328000	0,555573	4,545288
0,329000	0,549316	2,575073
0,330000	0,555573	3,549805
0,331000	0,550079	3,844604
0,332000	0,558167	4,644012
0,333000	0,550995	4,999847
0,334000	0,547638	4,999847
0,335000	0,546875	4,999847
0,336000	0,552216	4,999847
0,337000	0,557556	4,999847
0,338000	0,559387	4,999847
0,339000	0,564117	3,810425
0,340000	0,559998	2,522888
0,341000	0,567780	4,999847
0,342000	0,560455	4,545135
0,343000	0,536804	4,999847
0,344000	0,496063	4,999847
0,345000	0,532227	4,999847
0,346000	0,545197	4,999847
0,347000	0,558929	4,999847
0,348000	0,553131	4,999847
0,349000	0,561066	2,551575
0,350000	0,563812	4,804535
0,351000	0,565948	3,157654
0,352000	0,572510	4,704132
0,353000	0,565033	4,999847
0,354000	0,577545	4,999847
0,355000	0,561523	4,999847
0,356000	0,577850	4,999847
0,357000	0,566559	4,999847
0,358000	0,585175	4,999847
0,359000	0,578003	3,413544
0,360000	0,590820	2,718811
0,361000	0,585937	4,269867
0,362000	0,592499	4,317627
0,363000	0,589600	4,999847
0,364000	0,587311	4,999847
0,365000	0,592957	4,999847
0,366000	0,590820	4,999847
0,367000	0,598450	4,999847
0,368000	0,587158	4,999847
0,369000	0,599060	2,516632
0,370000	0,585632	4,346466
0,371000	0,604248	3,046112
0,372000	0,585022	4,826660
0,373000	0,606232	4,999847
0,374000	0,584412	4,999847
0,375000	0,600891	4,999847
0,376000	0,585785	4,999847
0,377000	0,594635	4,999847
0,378000	0,590973	4,999847
0,379000	0,596008	3,922119
0,380000	0,603790	4,774475
0,381000	0,596008	3,839417
0,382000	0,609894	3,777008
0,383000	0,583344	4,999847
0,384000	0,607910	4,999847
0,385000	0,579224	4,999847
0,386000	0,614014	4,999847
0,387000	0,580292	4,999847
0,388000	0,613708	4,282227
0,389000	0,590515	2,803955
0,390000	0,611572	3,361053
0,391000	0,602875	4,999847
0,392000	0,608368	4,487152
0,393000	0,607910	4,999847
0,394000	0,599670	4,999847
0,395000	0,608978	4,999847
0,396000	0,587769	4,999847
0,397000	0,612640	4,999847
0,398000	0,586548	4,999847
0,399000	0,623779	3,632812
0,400000	0,575562	2,275696
0,401000	0,625610	4,704590
0,402000	0,581970	4,320984
0,403000	0,619049	4,999847
0,404000	0,583801	4,999847
0,405000	0,607452	4,999847
0,406000	0,595551	4,999847
0,407000	0,599365	4,999847
0,408000	0,604706	4,999847
0,409000	0,594635	2,980042
0,410000	0,619354	3,012085
0,411000	0,589294	4,098511
0,412000	0,626373	4,999847
0,413000	0,583191	4,999847
0,414000	0,634155	4,999847
0,415000	0,588837	4,999847
0,416000	0,642853	4,999847
0,417000	0,590668	4,999847
0,418000	0,632477	4,999847
0,419000	0,611725	4,687500
0,420000	0,627594	3,872223
0,421000	0,622101	3,801422
0,422000	0,621338	4,315186
0,423000	0,631256	4,999847
0,424000	0,612946	4,999847
0,425000	0,640259	4,999847
0,426000	0,606842	4,999847
0,427000	0,648651	4,999847
0,428000	0,604858	4,898834
0,429000	0,659943	2,512970
0,430000	0,594635	3,428802
0,431000	0,653992	2,888947
0,432000	0,603180	4,999847
0,433000	0,640717	4,999847
0,434000	0,618591	4,999847
0,435000	0,629120	4,999847
0,436000	0,624390	4,999847
0,437000	0,613251	4,999847
0,438000	0,636749	4,623108
0,439000	0,617523	3,633270
0,440000	0,655670	4,459076
0,441000	0,607300	3,637848
0,442000	0,662842	4,293671
0,443000	0,602264	4,999847
0,444000	0,672150	4,999847
0,445000	0,611115	4,999847
0,446000	0,632782	4,999847
0,447000	0,610657	4,999847
0,448000	0,648041	3,962555
0,449000	0,634613	3,620148
0,450000	0,645142	4,185028
0,451000	0,652618	3,222961
0,452000	0,642548	4,653778
0,453000	0,667877	4,999847
0,454000	0,621033	4,999847
0,455000	0,668488	4,999847
0,456000	0,612640	4,999847
0,457000	0,679932	4,999847
0,458000	0,599365	4,670868
0,459000	0,682526	3,751068
0,460000	0,609436	3,169403
0,461000	0,667877	3,865967
0,462000	0,623474	3,746490
0,463000	0,647430	4,999847
0,464000	0,632324	4,999847
0,465000	0,632935	4,999847
0,466000	0,646362	4,999847
0,467000	0,619354	4,999847
0,468000	0,662994	4,999847
0,469000	0,608826	4,198914
0,470000	0,676117	2,689819
0,471000	0,605011	4,999847
0,472000	0,691833	4,999847
0,473000	0,596466	4,999847
0,474000	0,688782	4,999847
0,475000	0,613708	4,999847
0,476000	0,669403	4,999847
0,477000	0,631561	4,999847
0,478000	0,650940	4,978180
0,479000	0,648041	4,267883
0,480000	0,647583	3,473358
0,481000	0,673370	4,768524
0,482000	0,640564	4,467468
0,483000	0,692749	4,999847
0,484000	0,638580	4,999847
0,485000	0,708618	4,999847
0,486000	0,637665	4,999847
0,487000	0,724182	4,999847
0,488000	0,642090	4,585266
0,489000	0,717621	3,869171
0,490000	0,659790	2,171326
0,491000	0,696564	4,550781
0,492000	0,669708	4,999847
0,493000	0,684357	4,999847
0,494000	0,690002	4,999847
0,495000	0,673828	4,999847
0,496000	0,705872	4,999847
0,497000	0,664368	4,999847
0,498000	0,600891	4,999847
0,499000	0,572205	4,343262
0,500000	0,563660	3,273468
0,501000	0,645294	3,659210
0,502000	0,649261	4,341583
0,503000	0,703888	4,999847
0,504000	0,657349	4,999847
0,505000	0,726318	4,999847
0,506000	0,649567	4,999847
0,507000	0,740051	4,999847
0,508000	0,639343	4,454193
0,509000	0,736847	3,446960
0,510000	0,660858	4,001007
0,511000	0,718384	2,778320
0,512000	0,675812	4,999847
0,513000	0,699921	4,999847
0,514000	0,695038	4,999847
0,515000	0,688782	4,999847
0,516000	0,714264	4,999847
0,517000	0,670471	4,999847
0,518000	0,728455	4,999847
0,519000	0,666504	4,800262
0,520000	0,746765	4,072876
0,521000	0,654449	4,168091
0,522000	0,759583	4,687805
0,523000	0,658112	4,999847
0,524000	0,749817	4,999847
0,525000	0,682220	4,999847
0,526000	0,730286	4,999847
0,527000	0,698395	4,999847
0,528000	0,713959	4,367065
0,529000	0,719299	3,377380
0,530000	0,699005	3,339996
0,531000	0,736084	4,999847
0,532000	0,685272	4,999847
0,533000	0,753021	4,999847
0,534000	0,677795	4,999847
0,535000	0,770569	4,999847
0,536000	0,668488	4,999847
0,537000	0,783844	4,999847
0,538000	0,682373	4,999847
0,539000	0,766602	4,546509
0,540000	0,705414	3,342133
0,541000	0,747375	4,903412
0,542000	0,726318	4,159241
0,543000	0,731354	4,857178
0,544000	0,746307	4,999847
0,545000	0,714874	4,999847
0,546000	0,763092	4,999847
0,547000	0,700684	4,999847
0,548000	0,732727	4,588928
0,549000	0,650482	3,653870
0,550000	0,776825	3,301392
0,551000	0,668335	3,497162
0,552000	0,792694	4,999847
0,553000	0,699158	4,999847
0,554000	0,774994	4,999847
0,555000	0,720367	4,999847
0,556000	0,724030	4,999847
0,557000	0,731201	4,999847
0,558000	0,733948	4,640045
0,559000	0,764160	3,796539
0,560000	0,722809	3,605957
0,561000	0,784302	3,587646
0,562000	0,714111	4,670715
0,563000	0,803375	4,999847
0,564000	0,705109	4,999847
0,565000	0,783691	4,999847
0,566000	0,675354	4,999847
0,567000	0,783539	4,999847
0,568000	0,703278	4,999847
0,569000	0,765686	3,211975
0,570000	0,726318	3,514862
0,571000	0,750885	3,993835
0,572000	0,748138	4,435425
0,573000	0,731506	4,999847
0,574000	0,764465	4,999847
0,575000	0,714569	4,999847
0,576000	0,779114	4,999847
0,577000	0,703278	4,999847
0,578000	0,795898	4,999847
0,579000	0,693512	4,042053
0,580000	0,811005	3,464050
0,581000	0,704956	4,999847
0,582000	0,801697	4,770660
0,583000	0,731201	4,999847
0,584000	0,785980	4,999847
0,585000	0,755157	4,999847
0,586000	0,766449	4,999847
0,587000	0,773010	4,999847
0,588000	0,753174	4,999847
0,589000	0,793457	3,915253
0,590000	0,738068	3,839874
0,591000	0,809021	3,860779
0,592000	0,727539	4,439087
0,593000	0,825500	4,999847
0,594000	0,717621	4,999847
0,595000	0,840912	4,999847
0,596000	0,739746	4,999847
0,597000	0,825958	4,999847
0,598000	0,762787	4,999847
0,599000	0,808258	3,475189
0,600000	0,784454	3,686981
0,601000	0,791931	4,009247
0,602000	0,803833	4,322968
0,603000	0,771332	4,999847
0,604000	0,819550	4,999847
0,605000	0,759583	4,999847
0,606000	0,838013	4,999847
0,607000	0,751801	4,999847
0,608000	0,857239	4,304504
0,609000	0,760498	2,457581
0,610000	0,879517	2,734833
0,611000	0,780792	3,691406
0,612000	0,854492	4,647217
0,613000	0,800476	4,999847
0,614000	0,829620	4,999847
0,615000	0,818787	4,999847
0,616000	0,810394	4,999847
0,617000	0,836792	4,999847
0,618000	0,796509	4,999847
0,619000	0,856018	2,902374
0,620000	0,783234	3,673706
0,621000	0,873871	4,999847
0,622000	0,769806	3,312988
0,623000	0,889893	4,999847
0,624000	0,777283	4,999847
0,625000	0,879364	4,999847
0,626000	0,800018	4,999847
0,627000	0,860596	4,999847
0,628000	0,822296	4,759979
0,629000	0,843506	3,149719
0,630000	0,843811	4,258575
0,631000	0,827637	3,554535
0,632000	0,863495	4,765472
0,633000	0,814362	4,999847
0,634000	0,883942	4,999847
0,635000	0,797272	4,999847
0,636000	0,898895	4,999847
0,637000	0,783386	4,999847
0,638000	0,910797	4,999847
0,639000	0,805359	4,415894
0,640000	0,898590	3,991547
0,641000	0,829163	3,647003
0,642000	0,873871	4,382782
0,643000	0,848389	4,999847
0,644000	0,855560	4,999847
0,645000	0,868225	4,999847
0,646000	0,836334	4,999847
0,647000	0,885925	4,999847
0,648000	0,819397	4,999847
0,649000	0,902557	3,719482
0,650000	0,793152	3,918762
0,651000	0,883789	2,939453
0,652000	0,785217	4,621124
0,653000	0,913391	4,999847
0,654000	0,821075	4,999847
0,655000	0,895386	4,999847
0,656000	0,845337	4,999847
0,657000	0,879517	4,999847
0,658000	0,869446	4,999847
0,659000	0,861511	4,020996
0,660000	0,889435	3,745117
0,661000	0,845947	3,067017
0,662000	0,907898	3,859100
0,663000	0,828400	4,999847
0,664000	0,919037	4,999847
0,665000	0,816345	4,999847
0,666000	0,926819	4,999847
0,667000	0,802612	4,999847
0,668000	0,730133	4,201355
0,669000	0,697327	2,882690
0,670000	0,682678	3,341217
0,671000	0,675049	4,656677
0,672000	0,672150	4,999847
0,673000	0,670624	4,999847
0,674000	0,669708	4,999847
0,675000	0,669250	4,999847
0,676000	0,669098	4,999847
0,677000	0,668945	4,999847
0,678000	0,669098	4,813385
0,679000	0,668640	4,329834
0,680000	0,668640	3,892975
0,681000	0,668640	4,348297
0,682000	0,668793	4,757385
0,683000	0,668640	4,999847
0,684000	0,668182	4,999847
0,685000	0,668182	4,999847
0,686000	0,668488	4,999847
0,687000	0,668488	4,999847
0,688000	0,658417	4,139099
0,689000	0,590668	3,042450
0,690000	0,566559	2,992859
0,691000	0,555115	3,759766
0,692000	0,549316	4,917603
0,693000	0,544128	4,999847
0,694000	0,533295	4,999847
0,695000	0,533752	4,999847
0,696000	0,534515	4,999847
0,697000	0,532990	4,999847
0,698000	0,527344	4,334106
0,699000	0,523987	4,056244
0,700000	0,522156	3,163910
0,701000	0,523987	4,022217
0,702000	0,522766	4,407501
0,703000	0,516205	4,999847
0,704000	0,510864	4,999847
0,705000	0,508575	4,999847
0,706000	0,504456	4,999847
0,707000	0,500946	4,999847
0,708000	0,494385	4,999847
0,709000	0,484619	2,552643
0,710000	0,484314	4,438171
0,711000	0,488434	2,705078
0,712000	0,484161	4,999847
0,713000	0,483093	4,999847
0,714000	0,484161	4,999847
0,715000	0,486145	4,999847
0,716000	0,483856	4,999847
0,717000	0,487823	4,999847
0,718000	0,492401	4,999847
0,719000	0,497589	3,393250
0,720000	0,504913	3,880005
0,721000	0,510406	2,928162
0,722000	0,513306	4,111938
0,723000	0,513153	4,999847
0,724000	0,509033	4,999847
0,725000	0,510559	4,999847
0,726000	0,511475	4,999847
0,727000	0,507355	4,999847
0,728000	0,509644	4,819946
0,729000	0,504913	3,377686
0,730000	0,504303	3,414459
0,731000	0,506287	4,992676
0,732000	0,505066	4,999847
0,733000	0,496063	4,999847
0,734000	0,495911	4,999847
0,735000	0,491943	4,999847
0,736000	0,499878	4,999847
0,737000	0,502319	4,999847
0,738000	0,498962	4,999847
0,739000	0,497742	4,999847
0,740000	0,498657	4,123383
0,741000	0,495605	2,877197
0,742000	0,480499	4,283600
0,743000	0,490570	4,999847
0,744000	0,501251	4,999847
0,745000	0,508575	4,999847
0,746000	0,509796	4,999847
0,747000	0,515137	4,999847
0,748000	0,513916	4,999847
0,749000	0,514679	3,899231
0,750000	0,519562	4,348450
0,751000	0,527649	3,409424
0,752000	0,529022	4,999847
0,753000	0,482025	4,999847
0,754000	0,504608	4,999847
0,755000	0,513306	4,999847
0,756000	0,522003	4,999847
0,757000	0,527344	4,999847
0,758000	0,532837	4,606018
0,759000	0,534210	4,671326
0,760000	0,535889	3,004303
0,761000	0,530243	4,604340
0,762000	0,534821	4,999847
0,763000	0,546570	4,999847
0,764000	0,551453	4,999847
0,765000	0,545349	4,999847
0,766000	0,547791	4,999847
0,767000	0,546112	4,971008
0,768000	0,553131	4,896851
0,769000	0,555878	3,945465
0,770000	0,554657	3,028870
0,771000	0,560760	4,116211
0,772000	0,559387	4,999847
0,773000	0,565643	4,999847
0,774000	0,567017	4,999847
0,775000	0,572357	4,999847
0,776000	0,569153	4,999847
0,777000	0,574188	4,999847
0,778000	0,576782	4,999847
0,779000	0,580750	4,097443
0,780000	0,579071	3,655396
0,781000	0,581665	3,858795
0,782000	0,581360	4,405518
0,783000	0,583038	4,852448
0,784000	0,585480	4,999847
0,785000	0,580292	4,999847
0,786000	0,586243	4,999847
0,787000	0,587006	4,999847
0,788000	0,592041	4,414368
0,789000	0,586700	3,792267
0,790000	0,593872	3,574524
0,791000	0,585785	3,317719
0,792000	0,593719	4,999847
0,793000	0,590210	4,999847
0,794000	0,595398	4,999847
0,795000	0,597382	4,999847
0,796000	0,599365	4,999847
0,797000	0,598145	4,999847
0,798000	0,585480	4,999847
0,799000	0,591736	3,507690
0,800000	0,595398	4,338531
0,801000	0,604553	3,306427
0,802000	0,599518	4,082184
0,803000	0,608673	4,999847
0,804000	0,598755	4,999847
0,805000	0,612030	4,999847
0,806000	0,602875	4,999847
0,807000	0,609436	4,844971
0,808000	0,603027	4,299622
0,809000	0,599060	3,378448
0,810000	0,594635	3,787079
0,811000	0,594177	4,999847
0,812000	0,599976	4,181976
0,813000	0,584106	4,999847
0,814000	0,598297	4,999847
0,815000	0,587158	4,999847
0,816000	0,609436	4,999847
0,817000	0,581360	4,999847
0,818000	0,612030	4,999847
0,819000	0,579987	3,804474
0,820000	0,610046	2,984161
0,821000	0,591125	4,067383
0,822000	0,609741	4,357300
0,823000	0,597687	4,999847
0,824000	0,600891	4,999847
0,825000	0,600128	4,999847
0,826000	0,596313	4,999847
0,827000	0,607147	4,999847
0,828000	0,590210	4,999847
0,829000	0,611877	3,522949
0,830000	0,582581	3,539276
0,831000	0,619659	3,482513
0,832000	0,571899	4,999847
0,833000	0,621948	4,999847
0,834000	0,576630	4,999847
0,835000	0,614319	4,999847
0,836000	0,577698	4,999847
0,837000	0,603790	4,999847
0,838000	0,595856	4,999847
0,839000	0,601654	4,404602
0,840000	0,604858	2,017212
0,841000	0,592804	4,387665
0,842000	0,613861	2,716370
0,843000	0,586853	4,999847
0,844000	0,625763	4,999847
0,845000	0,581665	4,999847
0,846000	0,631409	4,999847
0,847000	0,580292	4,999847
0,848000	0,636444	4,530945
0,849000	0,592499	3,451385
0,850000	0,628204	3,202515
0,851000	0,594635	4,631195
0,852000	0,615082	4,501190
0,853000	0,608521	4,999847
0,854000	0,610657	4,999847
0,855000	0,592804	4,999847
0,856000	0,545197	4,999847
0,857000	0,603485	4,999847
0,858000	0,579681	4,999847
0,859000	0,634308	4,292603
0,860000	0,591736	4,999847
0,861000	0,651550	3,717651
0,862000	0,588531	4,284058
0,863000	0,646820	4,999847
0,864000	0,592194	4,999847
0,865000	0,637970	4,999847
0,866000	0,623016	4,999847
0,867000	0,632477	4,999847
0,868000	0,631256	4,965363
0,869000	0,624237	2,666626
0,870000	0,644073	4,109955
0,871000	0,618896	3,916626
0,872000	0,657806	4,460297
0,873000	0,614929	4,999847
0,874000	0,665588	4,999847
0,875000	0,616150	4,999847
0,876000	0,678253	4,999847
0,877000	0,608826	4,999847
0,878000	0,664368	4,999847
0,879000	0,625000	4,391937
0,880000	0,645142	2,687073
0,881000	0,612640	4,016266
0,882000	0,616302	2,748718
0,883000	0,620728	4,999847
0,884000	0,623627	4,999847
0,885000	0,654144	4,999847
0,886000	0,623016	4,999847
0,887000	0,670471	4,999847
0,888000	0,614777	4,379272
0,889000	0,679932	3,494415
0,890000	0,598297	2,988586
0,891000	0,680237	4,324646
0,892000	0,613251	4,998932
0,893000	0,669556	4,999847
0,894000	0,630798	4,999847
0,895000	0,656738	4,999847
0,896000	0,640717	4,999847
0,897000	0,639343	4,999847
0,898000	0,654602	4,999847
0,899000	0,634460	3,760529
0,900000	0,673218	4,032898
0,901000	0,628052	2,554016
0,902000	0,687714	3,590393
0,903000	0,625153	4,999847
0,904000	0,701447	4,999847
0,905000	0,622864	4,999847
0,906000	0,701447	4,999847
0,907000	0,638275	4,999847
0,908000	0,687103	4,786377
0,909000	0,654602	2,701416
0,910000	0,674591	4,125366
0,911000	0,672150	4,665985
0,912000	0,665588	4,781647
0,913000	0,688477	4,999847
0,914000	0,657043	4,999847
0,915000	0,702057	4,999847
0,916000	0,650177	4,999847
0,917000	0,713959	4,999847
0,918000	0,638733	4,949036
0,919000	0,723267	4,486542
0,920000	0,635071	3,329163
0,921000	0,713654	4,408264
0,922000	0,652161	3,952179
0,923000	0,697174	4,999847
0,924000	0,672302	4,999847
0,925000	0,685120	4,999847
0,926000	0,690613	4,999847
0,927000	0,674286	4,999847
0,928000	0,703430	4,999847
0,929000	0,653992	4,117737
0,930000	0,711975	3,178558
0,931000	0,631866	3,757172
0,932000	0,718536	4,766083
0,933000	0,618286	4,999847
0,934000	0,727844	4,999847
0,935000	0,613861	4,999847
0,936000	0,565186	4,999847
0,937000	0,543213	4,999847
0,938000	0,685577	4,999847
0,939000	0,610504	3,342896
0,940000	0,727386	4,396210
0,941000	0,649414	3,108673
0,942000	0,721741	2,953949
0,943000	0,673828	4,999847
0,944000	0,708771	4,999847
0,945000	0,695190	4,999847
0,946000	0,690613	4,999847
0,947000	0,706940	4,999847
0,948000	0,672150	4,999847
0,949000	0,722046	3,136139
0,950000	0,659637	4,800110
0,951000	0,737152	3,659210
0,952000	0,648804	4,999847
0,953000	0,751953	4,999847
0,954000	0,640259	4,999847
0,955000	0,748291	4,999847
0,956000	0,673370	4,999847
0,957000	0,734863	4,999847
0,958000	0,645142	4,999847
0,959000	0,682068	4,496460
0,960000	0,695648	3,951721
0,961000	0,692902	4,052277
0,962000	0,727539	3,970947
0,963000	0,690613	4,999847
0,964000	0,750427	4,999847
0,965000	0,682220	4,999847
0,966000	0,767822	4,999847
0,967000	0,671082	4,999847
0,968000	0,781097	4,999847
0,969000	0,677032	3,226624
0,970000	0,770874	2,407379
0,971000	0,699768	2,955475
0,972000	0,752258	4,983215
0,973000	0,722504	4,999847
0,974000	0,733643	4,999847
0,975000	0,739899	4,999847
0,976000	0,717316	4,999847
0,977000	0,756836	4,999847
0,978000	0,706482	4,999847
0,979000	0,776215	4,145203
0,980000	0,700684	4,171143
0,981000	0,795593	3,932037
0,982000	0,693207	3,571320
0,983000	0,810699	4,999847
0,984000	0,712280	4,999847
0,985000	0,796814	4,999847
0,986000	0,733795	4,999847
0,987000	0,776062	4,999847
0,988000	0,721741	4,981995
0,989000	0,722046	4,070129
0,990000	0,736694	3,695679
0,991000	0,706482	3,611908
0,992000	0,754547	4,999847
0,993000	0,695953	4,999847
0,994000	0,773163	4,999847
0,995000	0,688019	4,999847
0,996000	0,790558	4,999847
0,997000	0,677338	4,999847
0,998000	0,798187	4,490204
0,999000	0,709686	4,265442

