LabVIEW Measurement	
Writer_Version	2
Reader_Version	2
Separator	Tab
Decimal_Separator	,
Multi_Headings	Yes
X_Columns	One
Time_Pref	Absolute
Operator	d.nicolai
Date	2023/11/09
Time	16:04:05,6565121999996605588
***End_of_Header***	
	
Channels	2		
Samples	1000	1000	
Date	2023/11/09	2023/11/09	
Time	16:04:25,8545146999995580343	16:04:25,8545146999995580343	
Y_Unit_Label	Volts	Volts	
X_Dimension	Time	Time	
X0	0,0000000000000000E+0	0,0000000000000000E+0	
Delta_X	0,001000	0,001000	
***End_of_Header***			
X_Value	powebox	triggerbox	Comment
0,000000	0,608673	1,021423
0,001000	0,611115	4,999847
0,002000	0,608368	4,766693
0,003000	0,598297	4,999847
0,004000	0,612488	4,999847
0,005000	0,605011	4,999847
0,006000	0,614166	4,999847
0,007000	0,595398	4,999847
0,008000	0,617828	4,999847
0,009000	0,549774	3,630829
0,010000	0,593872	4,647522
0,011000	0,573120	4,408569
0,012000	0,611877	4,340210
0,013000	0,614166	4,999847
0,014000	0,624084	4,999847
0,015000	0,627289	4,999847
0,016000	0,626984	4,999847
0,017000	0,635986	4,999847
0,018000	0,624542	4,999847
0,019000	0,640717	3,004456
0,020000	0,617065	4,199982
0,021000	0,643616	3,509827
0,022000	0,602722	4,999847
0,023000	0,644226	4,999847
0,024000	0,610657	4,999847
0,025000	0,638580	4,999847
0,026000	0,608063	4,999847
0,027000	0,630188	4,999847
0,028000	0,621490	4,999847
0,029000	0,605316	3,586426
0,030000	0,601959	4,842987
0,031000	0,580597	3,945770
0,032000	0,607758	4,962006
0,033000	0,608673	4,999847
0,034000	0,647736	4,999847
0,035000	0,633087	4,999847
0,036000	0,665283	4,999847
0,037000	0,628052	4,999847
0,038000	0,668945	4,999847
0,039000	0,643311	3,111572
0,040000	0,667877	3,964539
0,041000	0,655212	3,307495
0,042000	0,642548	4,999847
0,043000	0,618439	4,999847
0,044000	0,612793	4,999847
0,045000	0,642548	4,999847
0,046000	0,646820	4,999847
0,047000	0,669861	4,999847
0,048000	0,652466	4,999847
0,049000	0,680237	3,284760
0,050000	0,648651	4,168854
0,051000	0,686188	3,794403
0,052000	0,646820	4,430389
0,053000	0,686951	4,999847
0,054000	0,626984	4,999847
0,055000	0,650635	4,999847
0,056000	0,633240	4,999847
0,057000	0,643463	4,999847
0,058000	0,641937	4,999847
0,059000	0,640411	2,457275
0,060000	0,652924	3,372040
0,061000	0,636292	3,629608
0,062000	0,663605	4,999847
0,063000	0,634766	4,999847
0,064000	0,672455	4,999847
0,065000	0,592346	4,999847
0,066000	0,659790	4,999847
0,067000	0,576477	4,999847
0,068000	0,648956	4,999847
0,069000	0,635071	3,218842
0,070000	0,665131	4,714661
0,071000	0,656738	3,985291
0,072000	0,663910	3,959961
0,073000	0,668182	4,999847
0,074000	0,661621	4,999847
0,075000	0,678711	4,999847
0,076000	0,653076	4,999847
0,077000	0,684204	4,999847
0,078000	0,652161	4,873505
0,079000	0,694122	3,436584
0,080000	0,643463	3,349609
0,081000	0,692749	4,809875
0,082000	0,614014	4,999847
0,083000	0,670624	4,999847
0,084000	0,647125	4,999847
0,085000	0,676270	4,999847
0,086000	0,668335	4,999847
0,087000	0,671387	4,999847
0,088000	0,679474	4,531555
0,089000	0,666962	3,750305
0,090000	0,691376	3,497162
0,091000	0,657806	3,528900
0,092000	0,616913	4,613800
0,093000	0,592499	4,999847
0,094000	0,633850	4,999847
0,095000	0,649261	4,999847
0,096000	0,676575	4,999847
0,097000	0,652161	4,999847
0,098000	0,688629	4,390717
0,099000	0,648499	2,934113
0,100000	0,701141	3,565674
0,101000	0,635681	4,999847
0,102000	0,708313	4,726868
0,103000	0,639343	4,999847
0,104000	0,705414	4,999847
0,105000	0,659332	4,999847
0,106000	0,696564	4,999847
0,107000	0,676727	4,999847
0,108000	0,688171	4,946594
0,109000	0,690918	4,901276
0,110000	0,653687	2,868500
0,111000	0,674438	4,692535
0,112000	0,624390	4,162903
0,113000	0,681610	4,999847
0,114000	0,654449	4,999847
0,115000	0,718994	4,999847
0,116000	0,664673	4,999847
0,117000	0,738068	4,999847
0,118000	0,677032	4,754181
0,119000	0,732117	3,257141
0,120000	0,686188	3,323364
0,121000	0,719757	4,655609
0,122000	0,702667	4,999847
0,123000	0,709991	4,999847
0,124000	0,711670	4,999847
0,125000	0,668640	4,999847
0,126000	0,695190	4,999847
0,127000	0,635376	4,999847
0,128000	0,708923	4,437561
0,129000	0,666504	3,541260
0,130000	0,736237	3,820953
0,131000	0,665588	2,677155
0,132000	0,710602	4,572449
0,133000	0,659637	4,999847
0,134000	0,722656	4,999847
0,135000	0,688324	4,999847
0,136000	0,713959	4,999847
0,137000	0,704193	4,999847
0,138000	0,690002	4,831390
0,139000	0,712891	2,575684
0,140000	0,686188	3,097076
0,141000	0,727539	3,918762
0,142000	0,676422	4,999847
0,143000	0,741119	4,999847
0,144000	0,669098	4,999847
0,145000	0,752716	4,999847
0,146000	0,672760	4,999847
0,147000	0,756073	4,999847
0,148000	0,682220	4,631348
0,149000	0,722198	4,713593
0,150000	0,697479	2,641296
0,151000	0,720978	4,194031
0,152000	0,722046	4,999847
0,153000	0,719604	4,999847
0,154000	0,740967	4,999847
0,155000	0,709229	4,999847
0,156000	0,755157	4,999847
0,157000	0,692749	4,999847
0,158000	0,764313	3,866577
0,159000	0,685577	3,952179
0,160000	0,774078	3,163300
0,161000	0,674133	3,475647
0,162000	0,767059	4,835052
0,163000	0,708466	4,999847
0,164000	0,731049	4,999847
0,165000	0,709229	4,999847
0,166000	0,736542	4,999847
0,167000	0,741882	4,999847
0,168000	0,733032	4,151154
0,169000	0,762787	4,405823
0,170000	0,720825	4,008636
0,171000	0,775909	3,463440
0,172000	0,713501	4,140472
0,173000	0,789185	4,855194
0,174000	0,682068	4,999847
0,175000	0,793152	4,999847
0,176000	0,718536	4,999847
0,177000	0,799255	4,999847
0,178000	0,738068	3,775635
0,179000	0,782318	3,478546
0,180000	0,752869	3,129272
0,181000	0,764771	4,999847
0,182000	0,767212	4,999847
0,183000	0,723572	4,999847
0,184000	0,771179	4,999847
0,185000	0,725555	4,999847
0,186000	0,791779	4,999847
0,187000	0,711212	4,999847
0,188000	0,803223	4,999847
0,189000	0,690765	4,361725
0,190000	0,791931	4,187317
0,191000	0,713806	4,511719
0,192000	0,798187	4,667816
0,193000	0,748444	4,999847
0,194000	0,790253	4,999847
0,195000	0,770264	4,999847
0,196000	0,773468	4,999847
0,197000	0,786743	4,999847
0,198000	0,761108	4,790039
0,199000	0,804443	3,730927
0,200000	0,749969	1,114807
0,201000	0,820770	4,345856
0,202000	0,731354	4,999847
0,203000	0,832977	4,999847
0,204000	0,733185	4,999847
0,205000	0,836182	4,999847
0,206000	0,750580	4,999847
0,207000	0,807037	4,999847
0,208000	0,767365	4,999847
0,209000	0,806122	4,156799
0,210000	0,793915	4,935913
0,211000	0,787506	2,865601
0,212000	0,810242	4,278412
0,213000	0,775604	4,999847
0,214000	0,828552	4,999847
0,215000	0,764160	4,999847
0,216000	0,844421	4,999847
0,217000	0,727234	4,999847
0,218000	0,842743	4,999847
0,219000	0,743256	3,607635
0,220000	0,825806	4,999847
0,221000	0,764771	3,855743
0,222000	0,835876	4,949036
0,223000	0,799713	4,999847
0,224000	0,818787	4,999847
0,225000	0,818481	4,999847
0,226000	0,804291	4,999847
0,227000	0,836639	4,999847
0,228000	0,785065	4,808350
0,229000	0,848389	3,989563
0,230000	0,766144	2,904053
0,231000	0,857697	4,591064
0,232000	0,756531	4,748688
0,233000	0,862274	4,533997
0,234000	0,750122	4,999847
0,235000	0,840607	4,999847
0,236000	0,789032	4,999847
0,237000	0,836334	4,999847
0,238000	0,817108	4,999847
0,239000	0,796051	3,696594
0,240000	0,822449	4,045868
0,241000	0,780792	4,394836
0,242000	0,839081	4,561005
0,243000	0,765991	4,999847
0,244000	0,853271	4,999847
0,245000	0,752869	4,999847
0,246000	0,862427	4,999847
0,247000	0,760040	4,999847
0,248000	0,857086	4,824829
0,249000	0,782928	4,144592
0,250000	0,861969	2,561340
0,251000	0,819855	4,892731
0,252000	0,846863	4,616547
0,253000	0,839539	4,999847
0,254000	0,828400	4,999847
0,255000	0,854340	4,999847
0,256000	0,820160	4,999847
0,257000	0,865326	4,999847
0,258000	0,798035	4,999847
0,259000	0,868378	3,843536
0,260000	0,783539	2,398529
0,261000	0,698395	3,972321
0,262000	0,660248	4,999847
0,263000	0,642395	4,999847
0,264000	0,634460	4,999847
0,265000	0,630646	4,999847
0,266000	0,628815	4,999847
0,267000	0,627594	4,999847
0,268000	0,626984	4,953918
0,269000	0,627441	3,801575
0,270000	0,627136	2,983704
0,271000	0,626831	4,159851
0,272000	0,626984	4,492645
0,273000	0,626831	4,999847
0,274000	0,627899	4,999847
0,275000	0,627899	4,999847
0,276000	0,626984	4,999847
0,277000	0,626678	4,999847
0,278000	0,626678	4,877472
0,279000	0,626373	3,220825
0,280000	0,626984	2,651520
0,281000	0,626984	4,999847
0,282000	0,608978	4,999847
0,283000	0,590973	4,999847
0,284000	0,582123	4,999847
0,285000	0,576324	4,999847
0,286000	0,570374	4,999847
0,287000	0,567932	4,999847
0,288000	0,527191	4,999847
0,289000	0,510254	4,196625
0,290000	0,533295	4,951630
0,291000	0,551758	3,359528
0,292000	0,562592	3,949890
0,293000	0,566711	4,999847
0,294000	0,570679	4,999847
0,295000	0,573883	4,999847
0,296000	0,574799	4,999847
0,297000	0,574188	4,999847
0,298000	0,565186	4,999847
0,299000	0,542450	3,523560
0,300000	0,559235	3,725739
0,301000	0,568085	3,431702
0,302000	0,573120	4,999847
0,303000	0,563049	4,999847
0,304000	0,562897	4,999847
0,305000	0,561829	4,999847
0,306000	0,527039	4,999847
0,307000	0,520782	4,999847
0,308000	0,552673	4,942780
0,309000	0,566559	4,517670
0,310000	0,571136	2,799683
0,311000	0,572968	4,164734
0,312000	0,568848	4,261475
0,313000	0,570221	4,999847
0,314000	0,568695	4,999847
0,315000	0,563660	4,999847
0,316000	0,537109	4,999847
0,317000	0,555878	4,999847
0,318000	0,558167	4,268951
0,319000	0,529785	2,761078
0,320000	0,516357	3,294983
0,321000	0,535431	4,999847
0,322000	0,564880	4,999847
0,323000	0,574493	4,999847
0,324000	0,583191	4,999847
0,325000	0,587311	4,999847
0,326000	0,586243	4,999847
0,327000	0,590057	4,999847
0,328000	0,585480	4,999847
0,329000	0,582123	4,475403
0,330000	0,582275	3,863983
0,331000	0,581818	4,381256
0,332000	0,581665	4,492187
0,333000	0,576019	4,999847
0,334000	0,540619	4,999847
0,335000	0,555115	4,999847
0,336000	0,564728	4,999847
0,337000	0,550995	4,999847
0,338000	0,560150	4,592285
0,339000	0,569000	2,901459
0,340000	0,569458	3,694458
0,341000	0,559998	3,794098
0,342000	0,528107	4,999847
0,343000	0,518341	4,999847
0,344000	0,512085	4,999847
0,345000	0,511627	4,999847
0,346000	0,520477	4,999847
0,347000	0,553894	4,999847
0,348000	0,575409	4,999847
0,349000	0,581665	3,973389
0,350000	0,583954	3,926697
0,351000	0,580597	3,516846
0,352000	0,578766	4,026031
0,353000	0,568085	4,999847
0,354000	0,565186	4,999847
0,355000	0,568237	4,999847
0,356000	0,578918	4,999847
0,357000	0,583496	4,999847
0,358000	0,575562	4,039917
0,359000	0,577087	3,193970
0,360000	0,578918	3,427734
0,361000	0,577087	4,999847
0,362000	0,574493	4,999847
0,363000	0,559998	4,999847
0,364000	0,537262	4,999847
0,365000	0,528717	4,999847
0,366000	0,525055	4,999847
0,367000	0,523071	4,999847
0,368000	0,523376	4,501038
0,369000	0,522766	3,790131
0,370000	0,526581	3,384399
0,371000	0,526276	3,531952
0,372000	0,530701	4,548187
0,373000	0,530396	4,999847
0,374000	0,557098	4,999847
0,375000	0,572205	4,999847
0,376000	0,586395	4,999847
0,377000	0,587463	4,999847
0,378000	0,588226	4,653015
0,379000	0,592499	3,086548
0,380000	0,589600	4,999847
0,381000	0,593719	4,353790
0,382000	0,595398	4,999847
0,383000	0,597076	4,999847
0,384000	0,596466	4,999847
0,385000	0,590057	4,999847
0,386000	0,589600	4,999847
0,387000	0,605621	4,999847
0,388000	0,604401	4,999847
0,389000	0,612183	4,331207
0,390000	0,605164	2,278442
0,391000	0,611267	2,854156
0,392000	0,608215	4,756470
0,393000	0,614166	4,999847
0,394000	0,611115	4,999847
0,395000	0,603333	4,999847
0,396000	0,601807	4,999847
0,397000	0,603180	4,999847
0,398000	0,604706	4,999847
0,399000	0,593567	3,608551
0,400000	0,602875	2,009430
0,401000	0,604095	4,868317
0,402000	0,608673	4,999847
0,403000	0,597382	4,999847
0,404000	0,601044	4,999847
0,405000	0,571747	4,999847
0,406000	0,556793	4,999847
0,407000	0,538635	4,999847
0,408000	0,559998	4,557495
0,409000	0,577087	3,660889
0,410000	0,596313	2,918549
0,411000	0,600739	3,444214
0,412000	0,602264	4,908447
0,413000	0,597229	4,999847
0,414000	0,587616	4,999847
0,415000	0,593872	4,999847
0,416000	0,588837	4,999847
0,417000	0,597687	4,999847
0,418000	0,590363	4,371185
0,419000	0,602875	3,023376
0,420000	0,594635	3,582153
0,421000	0,595856	4,999847
0,422000	0,591431	4,999847
0,423000	0,581818	4,999847
0,424000	0,582886	4,999847
0,425000	0,597839	4,999847
0,426000	0,603790	4,999847
0,427000	0,602264	4,999847
0,428000	0,607147	4,999847
0,429000	0,602112	3,573608
0,430000	0,609436	4,884338
0,431000	0,582581	3,629761
0,432000	0,614166	4,999847
0,433000	0,610504	4,999847
0,434000	0,630951	4,999847
0,435000	0,617676	4,999847
0,436000	0,626678	4,999847
0,437000	0,621185	4,999847
0,438000	0,624237	3,963928
0,439000	0,593109	3,620453
0,440000	0,607147	2,995911
0,441000	0,617981	4,999847
0,442000	0,623627	4,999847
0,443000	0,635529	4,999847
0,444000	0,627594	4,999847
0,445000	0,643616	4,999847
0,446000	0,627899	4,999847
0,447000	0,646515	4,999847
0,448000	0,584259	4,999847
0,449000	0,620575	4,205627
0,450000	0,588226	3,617706
0,451000	0,614166	2,994232
0,452000	0,624847	4,783783
0,453000	0,637512	4,999847
0,454000	0,642242	4,999847
0,455000	0,641174	4,999847
0,456000	0,647430	4,999847
0,457000	0,637970	4,999847
0,458000	0,651855	4,468536
0,459000	0,634155	3,473511
0,460000	0,655365	3,781738
0,461000	0,631866	4,131012
0,462000	0,659943	4,999847
0,463000	0,631256	4,999847
0,464000	0,655365	4,999847
0,465000	0,636597	4,999847
0,466000	0,650482	4,999847
0,467000	0,646362	4,999847
0,468000	0,649719	4,999847
0,469000	0,653076	3,905334
0,470000	0,615845	2,765198
0,471000	0,631409	4,543915
0,472000	0,599060	4,525146
0,473000	0,638123	4,999847
0,474000	0,623627	4,999847
0,475000	0,662842	4,999847
0,476000	0,637207	4,999847
0,477000	0,673981	4,999847
0,478000	0,647278	4,999847
0,479000	0,670166	3,666077
0,480000	0,653381	2,343292
0,481000	0,636292	4,999847
0,482000	0,634766	4,999847
0,483000	0,634766	4,999847
0,484000	0,644226	4,999847
0,485000	0,629578	4,999847
0,486000	0,651703	4,999847
0,487000	0,627747	4,999847
0,488000	0,657654	4,999847
0,489000	0,624542	4,056549
0,490000	0,664215	1,975555
0,491000	0,617981	3,751526
0,492000	0,660400	4,768829
0,493000	0,630493	4,999847
0,494000	0,655823	4,999847
0,495000	0,640259	4,999847
0,496000	0,649109	4,999847
0,497000	0,647888	4,999847
0,498000	0,637360	4,145355
0,499000	0,652618	3,558655
0,500000	0,640411	3,582916
0,501000	0,668335	4,999847
0,502000	0,638733	4,999847
0,503000	0,674896	4,999847
0,504000	0,620117	4,999847
0,505000	0,675049	4,999847
0,506000	0,633545	4,999847
0,507000	0,674896	4,999847
0,508000	0,647125	4,999847
0,509000	0,666351	3,279877
0,510000	0,651550	4,999847
0,511000	0,657196	4,843140
0,512000	0,660858	4,298859
0,513000	0,650482	4,999847
0,514000	0,671539	4,999847
0,515000	0,644684	4,999847
0,516000	0,679474	4,999847
0,517000	0,630798	4,999847
0,518000	0,683136	4,999847
0,519000	0,625000	2,591553
0,520000	0,689392	3,945618
0,521000	0,629578	4,999847
0,522000	0,675201	4,971619
0,523000	0,639801	4,999847
0,524000	0,652618	4,999847
0,525000	0,642700	4,999847
0,526000	0,655365	4,999847
0,527000	0,671692	4,999847
0,528000	0,654907	4,999847
0,529000	0,604401	4,034119
0,530000	0,581512	3,341675
0,531000	0,581360	3,527679
0,532000	0,674896	4,164276
0,533000	0,641022	4,999847
0,534000	0,682373	4,999847
0,535000	0,658722	4,999847
0,536000	0,655060	4,999847
0,537000	0,662079	4,999847
0,538000	0,660248	4,999847
0,539000	0,680084	2,390747
0,540000	0,657654	3,376465
0,541000	0,677795	4,999847
0,542000	0,622406	4,999847
0,543000	0,694427	4,999847
0,544000	0,645294	4,999847
0,545000	0,714722	4,999847
0,546000	0,652771	4,999847
0,547000	0,711823	4,999847
0,548000	0,661163	4,999847
0,549000	0,685425	4,326172
0,550000	0,649261	2,459564
0,551000	0,654144	4,058685
0,552000	0,658722	4,664001
0,553000	0,638885	4,999847
0,554000	0,674896	4,999847
0,555000	0,630035	4,999847
0,556000	0,691223	4,999847
0,557000	0,655518	4,999847
0,558000	0,721588	4,426575
0,559000	0,662842	2,379913
0,560000	0,737915	4,072723
0,561000	0,662079	4,932861
0,562000	0,728455	4,999847
0,563000	0,688782	4,999847
0,564000	0,718689	4,999847
0,565000	0,701141	4,999847
0,566000	0,709686	4,999847
0,567000	0,716095	4,999847
0,568000	0,701904	4,999847
0,569000	0,730286	3,231659
0,570000	0,653381	4,513855
0,571000	0,714569	4,097443
0,572000	0,630035	4,999847
0,573000	0,721893	4,999847
0,574000	0,636749	4,999847
0,575000	0,736237	4,999847
0,576000	0,670013	4,999847
0,577000	0,739594	4,999847
0,578000	0,707550	4,688110
0,579000	0,740051	2,737732
0,580000	0,727692	4,086914
0,581000	0,730286	4,805603
0,582000	0,742187	4,999847
0,583000	0,722504	4,999847
0,584000	0,753632	4,999847
0,585000	0,711975	4,999847
0,586000	0,763702	4,999847
0,587000	0,699921	4,999847
0,588000	0,772400	4,999847
0,589000	0,698242	3,917084
0,590000	0,761414	3,559265
0,591000	0,675812	3,783875
0,592000	0,724182	3,954620
0,593000	0,688782	4,999847
0,594000	0,705719	4,999847
0,595000	0,707397	4,999847
0,596000	0,693665	4,999847
0,597000	0,726166	4,999847
0,598000	0,682373	4,999847
0,599000	0,742340	2,500458
0,600000	0,674438	3,360291
0,601000	0,758057	4,999847
0,602000	0,664520	4,987183
0,603000	0,771942	4,999847
0,604000	0,677948	4,999847
0,605000	0,765381	4,999847
0,606000	0,700073	4,999847
0,607000	0,748901	4,999847
0,608000	0,721130	4,826202
0,609000	0,734406	3,908386
0,610000	0,740509	2,422943
0,611000	0,723724	4,423828
0,612000	0,759125	4,999847
0,613000	0,737305	4,999847
0,614000	0,790558	4,999847
0,615000	0,746155	4,999847
0,616000	0,814056	4,999847
0,617000	0,735626	4,999847
0,618000	0,826416	4,999847
0,619000	0,747375	3,174286
0,620000	0,834808	3,361969
0,621000	0,782166	4,999847
0,622000	0,844574	4,999847
0,623000	0,806580	4,999847
0,624000	0,838776	4,999847
0,625000	0,827026	4,999847
0,626000	0,827637	4,999847
0,627000	0,839081	4,999847
0,628000	0,808716	4,999847
0,629000	0,845032	3,738403
0,630000	0,783997	3,777313
0,631000	0,848694	2,833252
0,632000	0,780029	4,087830
0,633000	0,858307	4,999847
0,634000	0,795135	4,999847
0,635000	0,860138	4,999847
0,636000	0,811310	4,999847
0,637000	0,849304	4,999847
0,638000	0,816650	4,363098
0,639000	0,836182	2,969513
0,640000	0,835724	3,262024
0,641000	0,817719	4,999847
0,642000	0,845337	4,999847
0,643000	0,807648	4,999847
0,644000	0,824890	4,999847
0,645000	0,776978	4,999847
0,646000	0,857544	4,999847
0,647000	0,747986	4,999847
0,648000	0,854340	4,999847
0,649000	0,801392	3,899384
0,650000	0,863190	3,069000
0,651000	0,822449	4,999847
0,652000	0,859375	4,918213
0,653000	0,841217	4,999847
0,654000	0,821228	4,999847
0,655000	0,839081	4,999847
0,656000	0,811462	4,999847
0,657000	0,853424	4,999847
0,658000	0,791626	3,859863
0,659000	0,858917	2,360535
0,660000	0,765533	2,797546
0,661000	0,862885	4,999847
0,662000	0,791473	4,999847
0,663000	0,865631	4,999847
0,664000	0,807953	4,999847
0,665000	0,860138	4,999847
0,666000	0,821381	4,999847
0,667000	0,844879	4,999847
0,668000	0,838318	4,953461
0,669000	0,803528	3,635559
0,670000	0,838623	4,999847
0,671000	0,776825	3,303070
0,672000	0,847626	4,999847
0,673000	0,762329	4,999847
0,674000	0,858459	4,999847
0,675000	0,800781	4,999847
0,676000	0,869293	4,999847
0,677000	0,818787	4,999847
0,678000	0,868073	4,735107
0,679000	0,832214	3,625336
0,680000	0,863953	2,524109
0,681000	0,849609	3,987122
0,682000	0,857239	4,999847
0,683000	0,858459	4,999847
0,684000	0,829010	4,999847
0,685000	0,862579	4,999847
0,686000	0,809021	4,999847
0,687000	0,865936	4,999847
0,688000	0,796509	4,999847
0,689000	0,868835	4,067688
0,690000	0,788116	3,941803
0,691000	0,868073	3,410645
0,692000	0,802460	4,728546
0,693000	0,861053	4,999847
0,694000	0,822144	4,999847
0,695000	0,846710	4,999847
0,696000	0,841675	4,999847
0,697000	0,841522	4,999847
0,698000	0,727997	4,065857
0,699000	0,673523	2,509308
0,700000	0,648804	2,620544
0,701000	0,636902	4,251709
0,702000	0,631714	4,999847
0,703000	0,629272	4,999847
0,704000	0,628052	4,999847
0,705000	0,627289	4,999847
0,706000	0,626678	4,999847
0,707000	0,626831	4,999847
0,708000	0,626831	4,582977
0,709000	0,626526	3,582458
0,710000	0,626373	4,672394
0,711000	0,626526	3,942413
0,712000	0,626221	4,999847
0,713000	0,626068	4,999847
0,714000	0,626068	4,999847
0,715000	0,626221	4,999847
0,716000	0,625763	4,999847
0,717000	0,625916	4,645538
0,718000	0,626068	4,336090
0,719000	0,599213	3,430939
0,720000	0,558472	3,363800
0,721000	0,548553	4,999847
0,722000	0,546875	4,999847
0,723000	0,547638	4,999847
0,724000	0,548859	4,999847
0,725000	0,547638	4,999847
0,726000	0,547028	4,999847
0,727000	0,547485	4,999847
0,728000	0,548706	4,999847
0,729000	0,547638	4,108734
0,730000	0,549469	4,293213
0,731000	0,546722	4,683990
0,732000	0,549622	4,603882
0,733000	0,551453	4,999847
0,734000	0,551758	4,999847
0,735000	0,550385	4,999847
0,736000	0,549011	4,999847
0,737000	0,549622	4,999847
0,738000	0,549927	4,910278
0,739000	0,550842	2,861938
0,740000	0,550385	3,236084
0,741000	0,550995	4,999847
0,742000	0,551605	4,999847
0,743000	0,552216	4,999847
0,744000	0,550079	4,999847
0,745000	0,550385	4,999847
0,746000	0,522461	4,999847
0,747000	0,525513	4,999847
0,748000	0,552521	4,999847
0,749000	0,566406	3,960114
0,750000	0,569153	4,359131
0,751000	0,568085	4,502106
0,752000	0,570984	4,767761
0,753000	0,573578	4,999847
0,754000	0,575714	4,999847
0,755000	0,575409	4,999847
0,756000	0,576477	4,999847
0,757000	0,580750	4,999847
0,758000	0,581360	3,971710
0,759000	0,583038	3,200073
0,760000	0,581055	2,172089
0,761000	0,581970	4,891357
0,762000	0,579529	4,999847
0,763000	0,576630	4,999847
0,764000	0,565186	4,999847
0,765000	0,567932	4,999847
0,766000	0,572357	4,999847
0,767000	0,573883	4,999847
0,768000	0,566101	4,999847
0,769000	0,556793	3,526001
0,770000	0,553131	4,999847
0,771000	0,550385	4,540100
0,772000	0,540466	4,569244
0,773000	0,541992	4,999847
0,774000	0,542603	4,999847
0,775000	0,544739	4,999847
0,776000	0,549316	4,999847
0,777000	0,540466	4,754944
0,778000	0,537872	4,787598
0,779000	0,549622	2,991486
0,780000	0,560608	3,048096
0,781000	0,570831	4,999847
0,782000	0,575867	4,999847
0,783000	0,579224	4,999847
0,784000	0,580139	4,999847
0,785000	0,586395	4,999847
0,786000	0,583191	4,999847
0,787000	0,583649	4,999847
0,788000	0,581970	4,956360
0,789000	0,579681	3,589325
0,790000	0,579376	3,787537
0,791000	0,568390	3,817749
0,792000	0,570068	4,529572
0,793000	0,574799	4,999847
0,794000	0,575562	4,999847
0,795000	0,573273	4,999847
0,796000	0,576019	4,999847
0,797000	0,576935	4,999847
0,798000	0,577545	4,999847
0,799000	0,581207	2,724609
0,800000	0,580902	2,275391
0,801000	0,581818	4,999847
0,802000	0,584564	4,999847
0,803000	0,580597	4,999847
0,804000	0,581665	4,999847
0,805000	0,578461	4,999847
0,806000	0,579834	4,999847
0,807000	0,582581	4,999847
0,808000	0,583496	4,999847
0,809000	0,571442	3,301239
0,810000	0,572815	4,478302
0,811000	0,589294	3,587494
0,812000	0,592804	4,999847
0,813000	0,600739	4,999847
0,814000	0,592957	4,999847
0,815000	0,589905	4,999847
0,816000	0,568542	4,999847
0,817000	0,589294	4,519958
0,818000	0,591278	4,999847
0,819000	0,590973	2,849426
0,820000	0,579681	2,741394
0,821000	0,586853	4,999847
0,822000	0,583038	4,999847
0,823000	0,592499	4,999847
0,824000	0,598297	4,999847
0,825000	0,597229	4,999847
0,826000	0,606842	4,999847
0,827000	0,594482	4,999847
0,828000	0,602570	4,999847
0,829000	0,601196	3,384247
0,830000	0,605774	3,143005
0,831000	0,599365	3,835144
0,832000	0,606384	4,629364
0,833000	0,601349	4,999847
0,834000	0,605011	4,999847
0,835000	0,604553	4,999847
0,836000	0,596771	4,999847
0,837000	0,591888	4,999847
0,838000	0,586700	4,434357
0,839000	0,575714	2,503052
0,840000	0,549469	4,707947
0,841000	0,556641	4,999847
0,842000	0,534363	4,999847
0,843000	0,553894	4,999847
0,844000	0,556793	4,999847
0,845000	0,569611	4,999847
0,846000	0,568542	4,999847
0,847000	0,571747	4,999847
0,848000	0,561829	4,500732
0,849000	0,548096	3,555603
0,850000	0,566101	4,999847
0,851000	0,573425	3,713837
0,852000	0,580292	4,999847
0,853000	0,580292	4,999847
0,854000	0,586548	4,999847
0,855000	0,579681	4,999847
0,856000	0,588074	4,999847
0,857000	0,583344	4,999847
0,858000	0,592957	4,242249
0,859000	0,585175	2,390442
0,860000	0,596313	4,389648
0,861000	0,590820	4,999847
0,862000	0,585327	4,999847
0,863000	0,572662	4,999847
0,864000	0,574036	4,999847
0,865000	0,576324	4,999847
0,866000	0,576172	4,999847
0,867000	0,588379	4,999847
0,868000	0,576477	4,610443
0,869000	0,594330	3,574677
0,870000	0,594482	4,999847
0,871000	0,613861	3,424835
0,872000	0,603180	4,149933
0,873000	0,620270	4,999847
0,874000	0,607147	4,999847
0,875000	0,619049	4,999847
0,876000	0,614014	4,999847
0,877000	0,620270	4,999847
0,878000	0,619965	4,388885
0,879000	0,620728	2,995758
0,880000	0,621796	4,664612
0,881000	0,618286	3,373260
0,882000	0,628815	4,999847
0,883000	0,622864	4,999847
0,884000	0,635834	4,999847
0,885000	0,612488	4,999847
0,886000	0,628815	4,999847
0,887000	0,590820	4,999847
0,888000	0,619659	4,938507
0,889000	0,598602	3,553619
0,890000	0,621338	4,049683
0,891000	0,619965	3,619232
0,892000	0,630493	4,999847
0,893000	0,633087	4,999847
0,894000	0,634460	4,999847
0,895000	0,640717	4,999847
0,896000	0,631256	4,999847
0,897000	0,643616	4,999847
0,898000	0,630951	4,922333
0,899000	0,648651	3,008270
0,900000	0,632477	2,760925
0,901000	0,654907	4,999847
0,902000	0,633087	4,999847
0,903000	0,655060	4,999847
0,904000	0,639496	4,999847
0,905000	0,650940	4,999847
0,906000	0,644379	4,999847
0,907000	0,646820	4,999847
0,908000	0,648193	4,628906
0,909000	0,640411	3,858337
0,910000	0,648499	4,887848
0,911000	0,630646	3,727875
0,912000	0,651398	4,924164
0,913000	0,630188	4,999847
0,914000	0,658417	4,999847
0,915000	0,627594	4,999847
0,916000	0,661774	4,999847
0,917000	0,633545	4,999847
0,918000	0,659027	4,642639
0,919000	0,643158	3,234100
0,920000	0,655975	3,139038
0,921000	0,648804	4,940033
0,922000	0,648346	4,999847
0,923000	0,657806	4,999847
0,924000	0,626373	4,999847
0,925000	0,642853	4,999847
0,926000	0,626984	4,999847
0,927000	0,658569	4,999847
0,928000	0,625916	4,519196
0,929000	0,665588	3,498688
0,930000	0,628204	4,999847
0,931000	0,669708	3,085327
0,932000	0,635223	4,999847
0,933000	0,662994	4,999847
0,934000	0,635071	4,999847
0,935000	0,649719	4,999847
0,936000	0,648499	4,999847
0,937000	0,640717	4,945984
0,938000	0,666504	4,185486
0,939000	0,638275	2,922668
0,940000	0,671997	2,991638
0,941000	0,631561	4,999847
0,942000	0,682220	4,999847
0,943000	0,623169	4,999847
0,944000	0,690460	4,999847
0,945000	0,623016	4,999847
0,946000	0,683441	4,999847
0,947000	0,641327	4,999847
0,948000	0,679016	4,999847
0,949000	0,658722	3,760834
0,950000	0,677795	4,589539
0,951000	0,644226	3,567657
0,952000	0,611725	4,999847
0,953000	0,645447	4,831696
0,954000	0,623779	4,999847
0,955000	0,665741	4,999847
0,956000	0,626984	4,999847
0,957000	0,680389	4,999847
0,958000	0,623169	4,701233
0,959000	0,690308	3,355865
0,960000	0,629425	3,737183
0,961000	0,679016	4,427948
0,962000	0,639954	4,999847
0,963000	0,657043	4,999847
0,964000	0,638275	4,999847
0,965000	0,640411	4,999847
0,966000	0,575714	4,999847
0,967000	0,565033	4,999847
0,968000	0,551453	4,337921
0,969000	0,649872	3,551636
0,970000	0,616913	3,858337
0,971000	0,696106	3,442535
0,972000	0,627899	4,999847
0,973000	0,716248	4,999847
0,974000	0,634918	4,999847
0,975000	0,705414	4,999847
0,976000	0,653229	4,999847
0,977000	0,691376	4,999847
0,978000	0,671082	4,646759
0,979000	0,678864	2,950439
0,980000	0,685272	2,813263
0,981000	0,667572	4,712982
0,982000	0,701141	4,999847
0,983000	0,660095	4,999847
0,984000	0,716248	4,999847
0,985000	0,653381	4,999847
0,986000	0,729828	4,999847
0,987000	0,651550	4,999847
0,988000	0,740356	4,999847
0,989000	0,667419	3,577423
0,990000	0,733185	4,322052
0,991000	0,695496	4,074097
0,992000	0,726471	4,777832
0,993000	0,713501	4,999847
0,994000	0,716400	4,999847
0,995000	0,728912	4,999847
0,996000	0,702667	4,999847
0,997000	0,734100	4,822693
0,998000	0,691071	4,999847
0,999000	0,748749	3,136139

