LabVIEW Measurement	
Writer_Version	2
Reader_Version	2
Separator	Tab
Decimal_Separator	,
Multi_Headings	Yes
X_Columns	One
Time_Pref	Absolute
Operator	d.nicolai
Date	2023/11/09
Time	16:04:05,6565121999996605588
***End_of_Header***	
	
Channels	2		
Samples	1000	1000	
Date	2023/11/09	2023/11/09	
Time	16:04:55,6075131999996859302	16:04:55,6075131999996859302	
Y_Unit_Label	Volts	Volts	
X_Dimension	Time	Time	
X0	0,0000000000000000E+0	0,0000000000000000E+0	
Delta_X	0,001000	0,001000	
***End_of_Header***			
X_Value	powebox	triggerbox	Comment
0,000000	0,496979	1,096802
0,001000	0,572510	4,573059
0,002000	0,516205	4,999847
0,003000	0,557556	4,999847
0,004000	0,534058	4,999847
0,005000	0,545044	4,999847
0,006000	0,550079	4,999847
0,007000	0,533295	4,999847
0,008000	0,565338	4,333344
0,009000	0,522461	3,755188
0,010000	0,579376	3,798218
0,011000	0,512543	3,840485
0,012000	0,592651	4,999847
0,013000	0,504456	4,999847
0,014000	0,599213	4,999847
0,015000	0,514526	4,999847
0,016000	0,583038	4,999847
0,017000	0,534363	4,999847
0,018000	0,568085	4,999847
0,019000	0,552826	4,759979
0,020000	0,554657	2,877350
0,021000	0,569916	3,531952
0,022000	0,542755	4,999847
0,023000	0,585480	4,929047
0,024000	0,532227	4,999847
0,025000	0,599213	4,999847
0,026000	0,522461	4,999847
0,027000	0,613251	4,999847
0,028000	0,513458	4,846649
0,029000	0,610352	3,979492
0,030000	0,533600	3,908691
0,031000	0,593872	3,774261
0,032000	0,554199	4,999847
0,033000	0,578461	4,999847
0,034000	0,572968	4,999847
0,035000	0,565338	4,999847
0,036000	0,590363	4,999847
0,037000	0,552673	4,999847
0,038000	0,606384	4,704132
0,039000	0,542297	3,952637
0,040000	0,621185	4,711304
0,041000	0,532684	4,711304
0,042000	0,635223	4,693146
0,043000	0,529480	4,999847
0,044000	0,621490	4,999847
0,045000	0,549927	4,999847
0,046000	0,603485	4,999847
0,047000	0,574951	4,999847
0,048000	0,590057	4,999847
0,049000	0,594635	3,813934
0,050000	0,576935	2,176971
0,051000	0,612640	4,964447
0,052000	0,565033	4,999847
0,053000	0,629425	4,999847
0,054000	0,554352	4,999847
0,055000	0,644073	4,999847
0,056000	0,545197	4,999847
0,057000	0,653839	4,999847
0,058000	0,555115	4,999847
0,059000	0,634918	4,013214
0,060000	0,578156	3,238831
0,061000	0,618439	4,868011
0,062000	0,599518	4,577484
0,063000	0,603638	4,999847
0,064000	0,618591	4,999847
0,065000	0,590668	4,999847
0,066000	0,636597	4,999847
0,067000	0,578613	4,999847
0,068000	0,653229	4,999847
0,069000	0,568390	3,899841
0,070000	0,668335	2,853699
0,071000	0,559540	4,120026
0,072000	0,667267	4,999847
0,073000	0,579834	4,999847
0,074000	0,635834	4,999847
0,075000	0,580750	4,999847
0,076000	0,622711	4,999847
0,077000	0,619965	4,999847
0,078000	0,616150	4,999847
0,079000	0,642853	4,326782
0,080000	0,605011	2,096405
0,081000	0,661316	4,853668
0,082000	0,594177	4,999847
0,083000	0,678253	4,835815
0,084000	0,584106	4,999847
0,085000	0,693359	4,999847
0,086000	0,581512	4,999847
0,087000	0,681458	4,999847
0,088000	0,606384	4,201355
0,089000	0,663300	3,406219
0,090000	0,629425	3,946075
0,091000	0,647430	4,999847
0,092000	0,650635	4,999847
0,093000	0,633850	4,999847
0,094000	0,669861	4,999847
0,095000	0,621490	4,999847
0,096000	0,687256	4,999847
0,097000	0,610504	4,999847
0,098000	0,703888	4,529419
0,099000	0,601501	4,208221
0,100000	0,715790	3,407440
0,101000	0,609436	4,999847
0,102000	0,696259	4,999847
0,103000	0,634308	4,999847
0,104000	0,679169	4,999847
0,105000	0,657043	4,999847
0,106000	0,663910	4,999847
0,107000	0,677490	4,999847
0,108000	0,650024	4,999847
0,109000	0,696411	3,756256
0,110000	0,638275	2,575684
0,111000	0,713501	4,999847
0,112000	0,627747	4,856415
0,113000	0,729675	4,999847
0,114000	0,618896	4,999847
0,115000	0,730743	4,999847
0,116000	0,638275	4,999847
0,117000	0,711823	4,999847
0,118000	0,662842	4,999847
0,119000	0,694733	4,114685
0,120000	0,684052	3,829193
0,121000	0,679932	3,024139
0,122000	0,704193	4,247131
0,123000	0,666962	4,636841
0,124000	0,723114	4,999847
0,125000	0,655823	4,999847
0,126000	0,740204	4,999847
0,127000	0,645905	4,999847
0,128000	0,755768	4,999847
0,129000	0,640717	3,547974
0,130000	0,746002	3,917389
0,131000	0,666962	4,727325
0,132000	0,727692	4,999847
0,133000	0,690765	4,999847
0,134000	0,711517	4,999847
0,135000	0,712433	4,999847
0,136000	0,697632	4,999847
0,137000	0,732269	4,999847
0,138000	0,685120	4,999847
0,139000	0,750732	3,659973
0,140000	0,674286	4,708405
0,141000	0,767365	3,749695
0,142000	0,664215	3,720703
0,143000	0,781250	4,999847
0,144000	0,670166	4,999847
0,145000	0,761566	4,999847
0,146000	0,695953	4,999847
0,147000	0,743866	4,999847
0,148000	0,719147	4,999847
0,149000	0,728149	3,795471
0,150000	0,740051	3,597107
0,151000	0,714569	3,871155
0,152000	0,759430	4,999847
0,153000	0,701752	4,999847
0,154000	0,776978	4,999847
0,155000	0,691376	4,999847
0,156000	0,793762	4,999847
0,157000	0,682220	4,999847
0,158000	0,796661	4,815063
0,159000	0,699158	3,645935
0,160000	0,776825	3,914032
0,161000	0,724335	3,953400
0,162000	0,759430	4,814911
0,163000	0,746613	4,999847
0,164000	0,744781	4,999847
0,165000	0,767670	4,999847
0,166000	0,731354	4,999847
0,167000	0,786285	4,999847
0,168000	0,719299	4,999847
0,169000	0,803528	3,474579
0,170000	0,709381	3,240051
0,171000	0,819550	4,999847
0,172000	0,702057	4,999847
0,173000	0,810547	4,999847
0,174000	0,728149	4,999847
0,175000	0,792084	4,999847
0,176000	0,752258	4,999847
0,177000	0,748901	4,999847
0,178000	0,761871	4,999847
0,179000	0,755463	4,047394
0,180000	0,791626	3,741760
0,181000	0,714417	3,971100
0,182000	0,776215	4,999847
0,183000	0,704651	4,999847
0,184000	0,792999	4,999847
0,185000	0,694885	4,999847
0,186000	0,808105	4,999847
0,187000	0,698853	4,999847
0,188000	0,790100	4,999847
0,189000	0,723572	3,446045
0,190000	0,773163	4,642487
0,191000	0,745850	3,777008
0,192000	0,758057	4,988403
0,193000	0,765839	4,999847
0,194000	0,744019	4,999847
0,195000	0,784149	4,999847
0,196000	0,732269	4,999847
0,197000	0,801697	4,999847
0,198000	0,721893	4,999847
0,199000	0,818024	4,340668
0,200000	0,712280	4,953766
0,201000	0,823822	4,079590
0,202000	0,726471	4,999847
0,203000	0,805664	4,999847
0,204000	0,749664	4,999847
0,205000	0,789795	4,999847
0,206000	0,771484	4,999847
0,207000	0,774841	4,999847
0,208000	0,791016	3,700562
0,209000	0,761261	4,066925
0,210000	0,730286	3,370056
0,211000	0,739594	4,570465
0,212000	0,743408	4,999847
0,213000	0,747986	4,999847
0,214000	0,841980	4,999847
0,215000	0,753937	4,999847
0,216000	0,815430	4,999847
0,217000	0,770569	4,999847
0,218000	0,795593	4,672852
0,219000	0,789948	3,849030
0,220000	0,779877	4,734802
0,221000	0,808563	3,750000
0,222000	0,766296	4,999542
0,223000	0,826721	4,999847
0,224000	0,753937	4,999847
0,225000	0,844116	4,999847
0,226000	0,743561	4,999847
0,227000	0,858765	4,999847
0,228000	0,746460	4,436951
0,229000	0,840149	3,071594
0,230000	0,770416	2,661438
0,231000	0,822906	4,606171
0,232000	0,791931	4,999847
0,233000	0,806885	4,999847
0,234000	0,812531	4,999847
0,235000	0,792389	4,999847
0,236000	0,832062	4,999847
0,237000	0,778503	4,999847
0,238000	0,850372	4,999847
0,239000	0,765991	4,287109
0,240000	0,865631	2,708740
0,241000	0,755005	4,270935
0,242000	0,866241	4,999847
0,243000	0,767975	4,999847
0,244000	0,845642	4,999847
0,245000	0,790253	4,999847
0,246000	0,828705	4,999847
0,247000	0,812073	4,999847
0,248000	0,812988	4,664917
0,249000	0,832062	3,841858
0,250000	0,797882	3,851166
0,251000	0,851593	3,662415
0,252000	0,784607	4,999847
0,253000	0,867157	4,999847
0,254000	0,771332	4,999847
0,255000	0,878754	4,999847
0,256000	0,759735	4,999847
0,257000	0,698395	4,999847
0,258000	0,670776	4,793854
0,259000	0,657806	4,344177
0,260000	0,652008	3,046722
0,261000	0,651245	3,315277
0,262000	0,649719	4,999847
0,263000	0,649261	4,786072
0,264000	0,648956	4,999847
0,265000	0,648956	4,999847
0,266000	0,648804	4,999847
0,267000	0,648499	4,999847
0,268000	0,648499	4,999847
0,269000	0,648346	3,973236
0,270000	0,648346	3,253326
0,271000	0,648346	4,260712
0,272000	0,648346	4,999847
0,273000	0,648346	4,999847
0,274000	0,648041	4,999847
0,275000	0,648499	4,999847
0,276000	0,648193	4,999847
0,277000	0,612793	4,999847
0,278000	0,504150	4,759674
0,279000	0,419617	3,828583
0,280000	0,409851	4,276123
0,281000	0,400848	3,496857
0,282000	0,402985	4,999847
0,283000	0,401764	4,999847
0,284000	0,400543	4,999847
0,285000	0,404968	4,999847
0,286000	0,398712	4,999847
0,287000	0,408173	4,999847
0,288000	0,397339	4,843597
0,289000	0,411224	4,279022
0,290000	0,395660	2,267914
0,291000	0,415192	4,160156
0,292000	0,396271	4,999847
0,293000	0,413666	4,999847
0,294000	0,401306	4,999847
0,295000	0,411682	4,999847
0,296000	0,406189	4,999847
0,297000	0,409241	4,999847
0,298000	0,411072	4,652100
0,299000	0,408020	4,440613
0,300000	0,416260	3,706360
0,301000	0,405884	3,593140
0,302000	0,419922	4,999847
0,303000	0,403595	4,999847
0,304000	0,424652	4,999847
0,305000	0,402374	4,999847
0,306000	0,428925	4,999847
0,307000	0,405579	4,999847
0,308000	0,426025	4,999847
0,309000	0,414276	3,931122
0,310000	0,429230	3,691254
0,311000	0,435181	3,390350
0,312000	0,436401	4,999847
0,313000	0,440826	4,999847
0,314000	0,434113	4,999847
0,315000	0,446777	4,999847
0,316000	0,430450	4,999847
0,317000	0,452271	4,999847
0,318000	0,428314	4,999847
0,319000	0,458069	3,877563
0,320000	0,425873	4,532776
0,321000	0,458984	3,776398
0,322000	0,432587	4,732208
0,323000	0,453644	4,999847
0,324000	0,439758	4,999847
0,325000	0,449371	4,999847
0,326000	0,447235	4,999847
0,327000	0,445251	4,999847
0,328000	0,454407	4,999847
0,329000	0,441589	3,814087
0,330000	0,460968	3,887329
0,331000	0,438232	4,500580
0,332000	0,467529	4,999847
0,333000	0,434418	4,999847
0,334000	0,474091	4,999847
0,335000	0,433655	4,999847
0,336000	0,470734	4,999847
0,337000	0,443573	4,999847
0,338000	0,464630	4,999847
0,339000	0,452423	4,349518
0,340000	0,459290	3,268890
0,341000	0,461273	4,318695
0,342000	0,454407	4,999847
0,343000	0,469208	4,999847
0,344000	0,449829	4,999847
0,345000	0,476837	4,999847
0,346000	0,445709	4,999847
0,347000	0,483704	4,999847
0,348000	0,441742	4,999847
0,349000	0,489349	3,168640
0,350000	0,445251	3,060760
0,351000	0,482330	4,307709
0,352000	0,455627	4,999847
0,353000	0,474854	4,999847
0,354000	0,464783	4,999847
0,355000	0,467682	4,999847
0,356000	0,473633	4,999847
0,357000	0,461121	4,999847
0,358000	0,482941	4,685974
0,359000	0,456085	3,392792
0,360000	0,490875	3,427124
0,361000	0,451050	2,733917
0,362000	0,497589	4,480133
0,363000	0,444794	4,999847
0,364000	0,498199	4,999847
0,365000	0,454712	4,999847
0,366000	0,490570	4,999847
0,367000	0,466919	4,999847
0,368000	0,483093	4,869843
0,369000	0,477905	3,339081
0,370000	0,475616	3,373260
0,371000	0,489044	4,957886
0,372000	0,470428	4,999847
0,373000	0,499878	4,999847
0,374000	0,464478	4,999847
0,375000	0,509491	4,999847
0,376000	0,458984	4,999847
0,377000	0,517883	4,999847
0,378000	0,456696	4,999847
0,379000	0,512848	4,015198
0,380000	0,470734	3,665466
0,381000	0,503082	3,973694
0,382000	0,449066	4,531097
0,383000	0,471344	4,999847
0,384000	0,484619	4,999847
0,385000	0,481567	4,999847
0,386000	0,503845	4,999847
0,387000	0,477753	4,999847
0,388000	0,516052	4,922943
0,389000	0,471191	2,979889
0,390000	0,525970	3,708344
0,391000	0,464325	3,919525
0,392000	0,533142	4,999847
0,393000	0,466919	4,999847
0,394000	0,521393	4,999847
0,395000	0,482635	4,999847
0,396000	0,510101	4,999847
0,397000	0,495758	4,999847
0,398000	0,502014	4,999847
0,399000	0,509796	4,287109
0,400000	0,492554	4,586792
0,401000	0,521698	3,683624
0,402000	0,483704	3,892365
0,403000	0,531311	4,999847
0,404000	0,475922	4,999847
0,405000	0,542297	4,999847
0,406000	0,470734	4,999847
0,407000	0,545959	4,999847
0,408000	0,483246	4,677582
0,409000	0,533752	3,406219
0,410000	0,499573	4,099731
0,411000	0,522308	4,907990
0,412000	0,514221	4,999847
0,413000	0,512085	4,999847
0,414000	0,528107	4,999847
0,415000	0,502777	4,999847
0,416000	0,540466	4,999847
0,417000	0,493774	4,999847
0,418000	0,552826	4,999847
0,419000	0,486603	4,008026
0,420000	0,563507	2,795563
0,421000	0,481720	3,489380
0,422000	0,558167	4,997711
0,423000	0,499268	4,999847
0,424000	0,544281	4,999847
0,425000	0,516205	4,999847
0,426000	0,532227	4,999847
0,427000	0,531464	4,999847
0,428000	0,520782	4,999847
0,429000	0,545502	3,756714
0,430000	0,511169	3,459015
0,431000	0,559387	4,386902
0,432000	0,502014	4,999847
0,433000	0,571594	4,999847
0,434000	0,494080	4,999847
0,435000	0,582275	4,999847
0,436000	0,495758	4,999847
0,437000	0,566711	4,999847
0,438000	0,514679	4,999847
0,439000	0,552673	4,090576
0,440000	0,531311	3,161011
0,441000	0,539856	4,417114
0,442000	0,548859	4,976959
0,443000	0,528717	4,999847
0,444000	0,562592	4,999847
0,445000	0,517883	4,999847
0,446000	0,576172	4,999847
0,447000	0,508270	4,999847
0,448000	0,589142	4,999847
0,449000	0,499878	3,444977
0,450000	0,593414	3,255005
0,451000	0,512543	4,604950
0,452000	0,576935	4,659119
0,453000	0,533142	4,999847
0,454000	0,563965	4,999847
0,455000	0,551910	4,999847
0,456000	0,551147	4,999847
0,457000	0,569000	4,999847
0,458000	0,540009	4,999847
0,459000	0,584412	4,388123
0,460000	0,529022	4,039307
0,461000	0,598450	2,617340
0,462000	0,519562	4,999847
0,463000	0,611725	4,899902
0,464000	0,512238	4,999847
0,465000	0,606384	4,999847
0,466000	0,533600	4,999847
0,467000	0,589752	4,999847
0,468000	0,553436	4,999847
0,469000	0,574799	3,121490
0,470000	0,572357	4,178162
0,471000	0,561829	4,072266
0,472000	0,589294	4,999847
0,473000	0,549927	4,999847
0,474000	0,605164	4,999847
0,475000	0,538940	4,999847
0,476000	0,619812	4,999847
0,477000	0,529633	4,999847
0,478000	0,633545	4,636383
0,479000	0,531006	3,688354
0,480000	0,617218	4,999847
0,481000	0,554047	3,750763
0,482000	0,600891	4,999847
0,483000	0,574799	4,999847
0,484000	0,555420	4,999847
0,485000	0,545959	4,999847
0,486000	0,536499	4,999847
0,487000	0,594330	4,999847
0,488000	0,553131	4,319611
0,489000	0,622406	3,183136
0,490000	0,547791	2,736053
0,491000	0,639801	4,197540
0,492000	0,538940	4,999847
0,493000	0,646820	4,999847
0,494000	0,552368	4,999847
0,495000	0,628357	4,999847
0,496000	0,574188	4,999847
0,497000	0,610962	4,999847
0,498000	0,596008	4,999847
0,499000	0,597382	4,622955
0,500000	0,614471	3,834991
0,501000	0,584259	4,768829
0,502000	0,632782	4,999847
0,503000	0,572968	4,945984
0,504000	0,648499	4,999847
0,505000	0,561829	4,999847
0,506000	0,663300	4,999847
0,507000	0,553741	4,999847
0,508000	0,659637	4,999847
0,509000	0,577240	3,700867
0,510000	0,641174	2,904510
0,511000	0,599518	4,893646
0,512000	0,625000	4,999847
0,513000	0,619659	4,999847
0,514000	0,611115	4,999847
0,515000	0,641022	4,999847
0,516000	0,598907	4,999847
0,517000	0,657654	4,999847
0,518000	0,587921	4,999847
0,519000	0,673523	4,594574
0,520000	0,578308	4,112854
0,521000	0,688934	3,694000
0,522000	0,578766	4,999847
0,523000	0,674133	4,999847
0,524000	0,603638	4,999847
0,525000	0,657501	4,999847
0,526000	0,627747	4,999847
0,527000	0,642700	4,999847
0,528000	0,648041	4,859619
0,529000	0,628357	3,423157
0,530000	0,667572	3,786469
0,531000	0,616608	3,183746
0,532000	0,685120	4,999847
0,533000	0,606079	4,999847
0,534000	0,701904	4,999847
0,535000	0,596466	4,999847
0,536000	0,710144	4,999847
0,537000	0,607910	4,999847
0,538000	0,689697	4,605865
0,539000	0,632019	4,301453
0,540000	0,673218	4,215698
0,541000	0,655518	3,138885
0,542000	0,657959	4,445190
0,543000	0,674591	4,999847
0,544000	0,644073	4,999847
0,545000	0,693054	4,999847
0,546000	0,633240	4,999847
0,547000	0,711212	4,999847
0,548000	0,622559	4,852142
0,549000	0,725861	4,282227
0,550000	0,613251	3,106689
0,551000	0,723877	4,394989
0,552000	0,635223	4,999847
0,553000	0,704346	4,999847
0,554000	0,659180	4,999847
0,555000	0,688324	4,999847
0,556000	0,681610	4,999847
0,557000	0,661163	4,999847
0,558000	0,687561	4,696350
0,559000	0,647583	4,555511
0,560000	0,704346	4,139404
0,561000	0,636292	4,943390
0,562000	0,721130	4,999847
0,563000	0,627289	4,999847
0,564000	0,736694	4,999847
0,565000	0,626068	4,999847
0,566000	0,723877	4,999847
0,567000	0,650330	4,999847
0,568000	0,705719	4,962616
0,569000	0,673523	3,678131
0,570000	0,690308	2,978821
0,571000	0,694427	3,418121
0,572000	0,676727	4,999847
0,573000	0,712585	4,999847
0,574000	0,662842	4,999847
0,575000	0,729218	4,999847
0,576000	0,651398	4,999847
0,577000	0,743713	4,999847
0,578000	0,641632	4,711761
0,579000	0,753326	3,797150
0,580000	0,649872	2,401886
0,581000	0,733185	3,180389
0,582000	0,673065	4,997253
0,583000	0,716095	4,999847
0,584000	0,695038	4,999847
0,585000	0,700989	4,999847
0,586000	0,702667	4,999847
0,587000	0,661469	4,999847
0,588000	0,722198	4,931488
0,589000	0,670471	3,601990
0,590000	0,748444	3,700867
0,591000	0,665436	3,377991
0,592000	0,766144	4,999847
0,593000	0,656738	4,999847
0,594000	0,765686	4,999847
0,595000	0,677185	4,999847
0,596000	0,747223	4,999847
0,597000	0,699921	4,999847
0,598000	0,718842	4,999847
0,599000	0,716400	4,197083
0,600000	0,713348	3,431091
0,601000	0,740051	4,523468
0,602000	0,702515	4,768524
0,603000	0,758362	4,999847
0,604000	0,691528	4,999847
0,605000	0,775299	4,999847
0,606000	0,682220	4,999847
0,607000	0,790710	4,943085
0,608000	0,677643	4,999847
0,609000	0,776978	3,691254
0,610000	0,700531	1,904907
0,611000	0,758209	4,773102
0,612000	0,722351	4,898682
0,613000	0,741119	4,999847
0,614000	0,743256	4,999847
0,615000	0,727234	4,999847
0,616000	0,762939	4,999847
0,617000	0,715485	4,999847
0,618000	0,780182	4,999847
0,619000	0,704803	4,060516
0,620000	0,796661	3,901215
0,621000	0,696259	3,316956
0,622000	0,809631	4,791107
0,623000	0,703430	4,999847
0,624000	0,791321	4,999847
0,625000	0,728149	4,999847
0,626000	0,774384	4,999847
0,627000	0,750885	4,999847
0,628000	0,758667	4,865417
0,629000	0,769501	3,786926
0,630000	0,743713	2,505798
0,631000	0,787201	4,999847
0,632000	0,732422	4,905701
0,633000	0,805969	4,999847
0,634000	0,722351	4,999847
0,635000	0,821838	4,999847
0,636000	0,712738	4,999847
0,637000	0,824127	4,999847
0,638000	0,729675	4,805450
0,639000	0,806274	4,433289
0,640000	0,753479	4,999847
0,641000	0,789795	3,645172
0,642000	0,775299	4,446716
0,643000	0,774994	4,999847
0,644000	0,794525	4,999847
0,645000	0,761719	4,999847
0,646000	0,813599	4,999847
0,647000	0,750122	4,999847
0,648000	0,736084	4,585571
0,649000	0,744019	3,439331
0,650000	0,747681	4,065094
0,651000	0,828552	4,627838
0,652000	0,765839	4,999847
0,653000	0,834045	4,999847
0,654000	0,747986	4,999847
0,655000	0,847473	4,999847
0,656000	0,736389	4,999847
0,657000	0,848541	4,999847
0,658000	0,749664	4,999847
0,659000	0,829010	3,486786
0,660000	0,774994	3,437958
0,661000	0,813904	3,962250
0,662000	0,797119	4,793549
0,663000	0,798950	4,999847
0,664000	0,817413	4,999847
0,665000	0,784912	4,999847
0,666000	0,836487	4,999847
0,667000	0,772247	4,999847
0,668000	0,854492	4,999847
0,669000	0,760498	2,803955
0,670000	0,870667	3,127441
0,671000	0,752716	3,662720
0,672000	0,860291	4,999847
0,673000	0,777130	4,999847
0,674000	0,841980	4,999847
0,675000	0,799408	4,999847
0,676000	0,825653	4,999847
0,677000	0,821075	4,999847
0,678000	0,810394	4,999847
0,679000	0,840912	3,907776
0,680000	0,796356	3,911285
0,681000	0,859833	3,570709
0,682000	0,783234	3,109741
0,683000	0,876007	4,999847
0,684000	0,771027	4,999847
0,685000	0,887146	4,999847
0,686000	0,773926	4,999847
0,687000	0,865936	4,999847
0,688000	0,797577	4,444733
0,689000	0,828552	3,298035
0,690000	0,809784	2,753296
0,691000	0,829010	4,617920
0,692000	0,840149	4,999847
0,693000	0,816803	4,999847
0,694000	0,729828	4,999847
0,695000	0,696564	4,999847
0,696000	0,679932	4,999847
0,697000	0,671997	4,999847
0,698000	0,668945	4,999847
0,699000	0,666962	4,219055
0,700000	0,664673	4,642334
0,701000	0,664062	3,116608
0,702000	0,664520	4,296112
0,703000	0,664825	4,999847
0,704000	0,665283	4,999847
0,705000	0,664825	4,999847
0,706000	0,665131	4,999847
0,707000	0,665283	4,999847
0,708000	0,664978	4,057312
0,709000	0,665283	3,154449
0,710000	0,665436	2,474976
0,711000	0,664978	4,774170
0,712000	0,666351	4,999847
0,713000	0,666199	4,999847
0,714000	0,626526	4,999847
0,715000	0,515900	4,999847
0,716000	0,451508	4,999847
0,717000	0,432587	4,999847
0,718000	0,420227	4,999847
0,719000	0,422821	3,540344
0,720000	0,420685	3,014526
0,721000	0,417786	4,084320
0,722000	0,422363	4,011078
0,723000	0,414734	4,999847
0,724000	0,425720	4,999847
0,725000	0,413513	4,999847
0,726000	0,429382	4,999847
0,727000	0,412292	4,999847
0,728000	0,432587	3,878021
0,729000	0,413971	3,372192
0,730000	0,430145	4,421692
0,731000	0,418549	3,534546
0,732000	0,428009	4,828033
0,733000	0,424042	4,999847
0,734000	0,425568	4,999847
0,735000	0,429230	4,999847
0,736000	0,424500	4,999847
0,737000	0,434875	4,999847
0,738000	0,423279	4,999847
0,739000	0,440216	4,796906
0,740000	0,421906	3,971252
0,741000	0,443420	3,406982
0,742000	0,419006	4,999847
0,743000	0,445709	4,741669
0,744000	0,424042	4,999847
0,745000	0,442657	4,999847
0,746000	0,430450	4,999847
0,747000	0,439301	4,999847
0,748000	0,436554	3,829803
0,749000	0,435944	3,179474
0,750000	0,442810	4,418030
0,751000	0,433350	4,524384
0,752000	0,448151	4,999847
0,753000	0,430450	4,999847
0,754000	0,453796	4,999847
0,755000	0,427856	4,999847
0,756000	0,459290	4,999847
0,757000	0,426483	4,999847
0,758000	0,457611	4,999847
0,759000	0,434570	4,578705
0,760000	0,452881	3,208466
0,761000	0,441895	3,697357
0,762000	0,448761	4,999847
0,763000	0,449371	4,999847
0,764000	0,444794	4,999847
0,765000	0,456085	4,999847
0,766000	0,440826	4,999847
0,767000	0,462952	4,999847
0,768000	0,437469	4,460297
0,769000	0,469208	4,172363
0,770000	0,434570	3,345795
0,771000	0,475159	4,111176
0,772000	0,436249	4,999847
0,773000	0,469666	4,999847
0,774000	0,445709	4,999847
0,775000	0,463409	4,999847
0,776000	0,454712	4,999847
0,777000	0,457764	4,999847
0,778000	0,462189	4,707031
0,779000	0,453033	3,972931
0,780000	0,470581	3,254242
0,781000	0,448914	4,999847
0,782000	0,477448	4,999847
0,783000	0,444489	4,999847
0,784000	0,484924	4,999847
0,785000	0,440521	4,999847
0,786000	0,487671	4,999847
0,787000	0,447693	4,926453
0,788000	0,480499	4,930878
0,789000	0,457611	3,181000
0,790000	0,473633	3,901520
0,791000	0,443726	3,528137
0,792000	0,436707	4,999847
0,793000	0,462799	4,999847
0,794000	0,455017	4,999847
0,795000	0,482941	4,999847
0,796000	0,454865	4,999847
0,797000	0,493164	4,999847
0,798000	0,450592	4,882050
0,799000	0,501556	4,403534
0,800000	0,447845	2,713318
0,801000	0,499115	4,574280
0,802000	0,459595	4,999847
0,803000	0,490265	4,953003
0,804000	0,470734	4,999847
0,805000	0,482941	4,999847
0,806000	0,481567	4,999847
0,807000	0,475159	4,999847
0,808000	0,490265	4,830475
0,809000	0,467224	3,775940
0,810000	0,500031	3,526459
0,811000	0,461426	4,138794
0,812000	0,508728	4,999847
0,813000	0,456238	4,999847
0,814000	0,517120	4,999847
0,815000	0,458221	4,999847
0,816000	0,508423	4,999847
0,817000	0,471191	4,999847
0,818000	0,499268	4,869385
0,819000	0,483551	4,210663
0,820000	0,490417	3,720856
0,821000	0,495453	3,718414
0,822000	0,482635	4,301453
0,823000	0,506287	4,999847
0,824000	0,475159	4,999847
0,825000	0,516815	4,999847
0,826000	0,468903	4,999847
0,827000	0,526581	4,999847
0,828000	0,462189	4,999847
0,829000	0,530243	3,264923
0,830000	0,470581	3,653107
0,831000	0,519104	3,834839
0,832000	0,485382	4,999847
0,833000	0,508728	4,999847
0,834000	0,498810	4,999847
0,835000	0,499268	4,999847
0,836000	0,511322	4,999847
0,837000	0,490723	4,999847
0,838000	0,523224	4,999847
0,839000	0,483093	4,082794
0,840000	0,534210	4,999847
0,841000	0,475922	3,622742
0,842000	0,544891	4,999847
0,843000	0,469360	4,966278
0,844000	0,541840	4,999847
0,845000	0,485382	4,999847
0,846000	0,529480	4,999847
0,847000	0,500488	4,902344
0,848000	0,518036	4,999847
0,849000	0,515137	2,861786
0,850000	0,508270	1,770477
0,851000	0,529022	4,693756
0,852000	0,498810	4,999847
0,853000	0,540924	4,999847
0,854000	0,490570	4,999847
0,855000	0,552979	4,999847
0,856000	0,482941	4,999847
0,857000	0,563507	4,999847
0,858000	0,483093	4,999847
0,859000	0,552979	4,692230
0,860000	0,501099	4,650269
0,861000	0,539398	3,053589
0,862000	0,517426	3,819122
0,863000	0,527802	4,999847
0,864000	0,532532	4,999847
0,865000	0,516663	4,999847
0,866000	0,546417	4,999847
0,867000	0,507050	4,961700
0,868000	0,559692	4,999847
0,869000	0,498047	3,144531
0,870000	0,571899	2,207184
0,871000	0,490570	4,999847
0,872000	0,578461	4,999847
0,873000	0,499573	4,999847
0,874000	0,562897	4,999847
0,875000	0,517883	4,999847
0,876000	0,549316	4,999847
0,877000	0,534821	4,999847
0,878000	0,537567	4,673920
0,879000	0,551300	3,217926
0,880000	0,525970	3,555908
0,881000	0,565643	3,930206
0,882000	0,515747	4,610291
0,883000	0,579071	4,999847
0,884000	0,506744	4,999847
0,885000	0,591888	4,999847
0,886000	0,498199	4,999847
0,887000	0,589752	4,999847
0,888000	0,516510	4,452209
0,889000	0,574036	2,848511
0,890000	0,537109	4,195404
0,891000	0,560303	4,448242
0,892000	0,555115	4,994812
0,893000	0,548096	4,999847
0,894000	0,549927	4,999847
0,895000	0,527191	4,999847
0,896000	0,582581	4,999847
0,897000	0,523682	4,999847
0,898000	0,598907	4,999847
0,899000	0,515289	4,064789
0,900000	0,612030	4,318542
0,901000	0,514679	3,999023
0,902000	0,601807	4,654236
0,903000	0,537415	4,999847
0,904000	0,585175	4,999847
0,905000	0,556030	4,999847
0,906000	0,569763	4,999847
0,907000	0,573730	4,999847
0,908000	0,556946	4,488373
0,909000	0,590057	4,035492
0,910000	0,545044	2,767487
0,911000	0,605469	4,453735
0,912000	0,534668	4,999847
0,913000	0,619812	4,999847
0,914000	0,525360	4,999847
0,915000	0,629730	4,999847
0,916000	0,534363	4,999847
0,917000	0,611877	4,999847
0,918000	0,556793	4,999847
0,919000	0,595856	3,809662
0,920000	0,577698	3,246002
0,921000	0,582733	4,476013
0,922000	0,596924	4,999847
0,923000	0,570221	4,999847
0,924000	0,614624	4,999847
0,925000	0,558777	4,999847
0,926000	0,630035	4,999847
0,927000	0,548706	4,999847
0,928000	0,644684	4,140472
0,929000	0,539551	3,059540
0,930000	0,644684	4,882507
0,931000	0,558929	3,658905
0,932000	0,626526	4,999847
0,933000	0,581665	4,999847
0,934000	0,610504	4,999847
0,935000	0,602264	4,999847
0,936000	0,596466	4,999847
0,937000	0,620728	4,999847
0,938000	0,583496	4,999847
0,939000	0,638123	3,556519
0,940000	0,572357	2,807007
0,941000	0,653992	4,012909
0,942000	0,562134	4,593048
0,943000	0,668488	4,999847
0,944000	0,559387	4,999847
0,945000	0,657501	4,999847
0,946000	0,583649	4,999847
0,947000	0,640259	4,999847
0,948000	0,605774	4,012604
0,949000	0,624084	3,745422
0,950000	0,626526	2,775116
0,951000	0,610199	3,546448
0,952000	0,645447	4,999847
0,953000	0,597992	4,999847
0,954000	0,662689	4,999847
0,955000	0,587158	4,999847
0,956000	0,678558	4,999847
0,957000	0,577393	4,999847
0,958000	0,691223	4,500885
0,959000	0,585480	3,648376
0,960000	0,671539	3,181305
0,961000	0,610046	4,873810
0,962000	0,654297	4,999847
0,963000	0,631866	4,999847
0,964000	0,639038	4,999847
0,965000	0,652466	4,999847
0,966000	0,625916	4,999847
0,967000	0,671539	4,999847
0,968000	0,614166	4,512482
0,969000	0,687866	3,334351
0,970000	0,603485	4,156494
0,971000	0,703888	3,327179
0,972000	0,594482	4,999847
0,973000	0,705566	4,999847
0,974000	0,613251	4,999847
0,975000	0,686646	4,999847
0,976000	0,637360	4,999847
0,977000	0,670319	4,999847
0,978000	0,659637	4,999847
0,979000	0,655823	4,068451
0,980000	0,679474	3,376923
0,981000	0,642853	3,144684
0,982000	0,697784	4,999847
0,983000	0,631409	4,999847
0,984000	0,714722	4,999847
0,985000	0,621185	4,999847
0,986000	0,730438	4,999847
0,987000	0,616150	4,999847
0,988000	0,720367	3,876343
0,989000	0,641479	3,701477
0,990000	0,702362	3,618164
0,991000	0,665436	4,547272
0,992000	0,686188	4,999847
0,993000	0,686188	4,999847
0,994000	0,672150	4,999847
0,995000	0,706482	4,999847
0,996000	0,626831	4,999847
0,997000	0,709534	4,999847
0,998000	0,642090	4,509125
0,999000	0,738373	4,857330

