LabVIEW Measurement	
Writer_Version	2
Reader_Version	2
Separator	Tab
Decimal_Separator	,
Multi_Headings	Yes
X_Columns	One
Time_Pref	Absolute
Operator	d.nicolai
Date	2023/11/09
Time	16:04:05,6565121999996605588
***End_of_Header***	
	
Channels	2		
Samples	1000	1000	
Date	2023/11/09	2023/11/09	
Time	16:04:45,0155126999999924646	16:04:45,0155126999999924646	
Y_Unit_Label	Volts	Volts	
X_Dimension	Time	Time	
X0	0,0000000000000000E+0	0,0000000000000000E+0	
Delta_X	0,001000	0,001000	
***End_of_Header***			
X_Value	powebox	triggerbox	Comment
0,000000	0,583344	0,784607
0,001000	0,586548	4,969330
0,002000	0,590363	4,999847
0,003000	0,588531	4,999847
0,004000	0,578613	4,999847
0,005000	0,589752	4,999847
0,006000	0,594025	4,999847
0,007000	0,594788	4,999847
0,008000	0,592957	4,999847
0,009000	0,621338	4,364471
0,010000	0,559387	2,135010
0,011000	0,594940	4,605713
0,012000	0,610504	3,422089
0,013000	0,619202	4,999847
0,014000	0,606995	4,999847
0,015000	0,606537	4,999847
0,016000	0,612640	4,999847
0,017000	0,571136	4,999847
0,018000	0,586395	4,886322
0,019000	0,529785	2,985382
0,020000	0,530701	3,916168
0,021000	0,494232	3,054504
0,022000	0,537262	4,435883
0,023000	0,578003	4,999847
0,024000	0,594025	4,999847
0,025000	0,599823	4,999847
0,026000	0,601959	4,999847
0,027000	0,605164	4,999847
0,028000	0,608368	4,999847
0,029000	0,609894	3,189240
0,030000	0,608063	2,017670
0,031000	0,604401	4,999847
0,032000	0,602570	3,819275
0,033000	0,601959	4,999847
0,034000	0,603790	4,999847
0,035000	0,606384	4,999847
0,036000	0,608521	4,999847
0,037000	0,611420	4,999847
0,038000	0,548706	4,455719
0,039000	0,580139	2,920685
0,040000	0,593567	3,040009
0,041000	0,605316	4,875183
0,042000	0,610046	4,999847
0,043000	0,615997	4,999847
0,044000	0,603180	4,999847
0,045000	0,608215	4,999847
0,046000	0,615234	4,999847
0,047000	0,618134	4,999847
0,048000	0,620270	4,857941
0,049000	0,605927	4,235229
0,050000	0,612183	3,458099
0,051000	0,607147	3,387756
0,052000	0,616608	3,687592
0,053000	0,535431	4,999847
0,054000	0,568390	4,999847
0,055000	0,582886	4,999847
0,056000	0,600739	4,999847
0,057000	0,605316	4,999847
0,058000	0,609589	4,975891
0,059000	0,610657	3,489075
0,060000	0,610046	4,108124
0,061000	0,613251	2,870178
0,062000	0,611115	4,340668
0,063000	0,616150	4,999847
0,064000	0,610352	4,999847
0,065000	0,621796	4,999847
0,066000	0,612030	4,999847
0,067000	0,625763	4,999847
0,068000	0,615997	4,999847
0,069000	0,627136	3,348999
0,070000	0,611420	3,521118
0,071000	0,622711	2,760925
0,072000	0,621643	3,658600
0,073000	0,625610	4,999847
0,074000	0,609894	4,999847
0,075000	0,557251	4,999847
0,076000	0,570068	4,999847
0,077000	0,542145	4,999847
0,078000	0,592804	4,999847
0,079000	0,597687	2,847900
0,080000	0,624847	2,236023
0,081000	0,618134	3,571625
0,082000	0,640411	4,999847
0,083000	0,625763	4,999847
0,084000	0,640717	4,999847
0,085000	0,632782	4,999847
0,086000	0,636292	4,999847
0,087000	0,631714	4,999847
0,088000	0,634155	4,999847
0,089000	0,639191	4,239044
0,090000	0,634613	3,525848
0,091000	0,644836	2,855225
0,092000	0,629883	3,081512
0,093000	0,646667	4,999847
0,094000	0,625000	4,999847
0,095000	0,650024	4,999847
0,096000	0,623627	4,999847
0,097000	0,650940	4,999847
0,098000	0,631104	4,270020
0,099000	0,648346	3,823853
0,100000	0,641022	3,714142
0,101000	0,646057	3,633575
0,102000	0,645294	4,999847
0,103000	0,645905	4,999847
0,104000	0,654449	4,999847
0,105000	0,646362	4,999847
0,106000	0,661316	4,999847
0,107000	0,646210	4,999847
0,108000	0,667877	4,999847
0,109000	0,644073	4,731140
0,110000	0,673065	3,310547
0,111000	0,646973	3,748627
0,112000	0,672607	3,699341
0,113000	0,656586	4,999847
0,114000	0,669861	4,999847
0,115000	0,662079	4,999847
0,116000	0,667267	4,999847
0,117000	0,668793	4,999847
0,118000	0,664062	4,228516
0,119000	0,641937	4,000702
0,120000	0,626526	2,744293
0,121000	0,665131	4,557953
0,122000	0,646973	4,847717
0,123000	0,681152	4,999847
0,124000	0,652924	4,999847
0,125000	0,690155	4,999847
0,126000	0,660400	4,999847
0,127000	0,687256	4,999847
0,128000	0,671082	4,544830
0,129000	0,681458	3,672943
0,130000	0,673981	4,999847
0,131000	0,676880	2,671967
0,132000	0,682983	4,459686
0,133000	0,675049	4,999847
0,134000	0,691376	4,999847
0,135000	0,670471	4,999847
0,136000	0,696716	4,999847
0,137000	0,663605	4,999847
0,138000	0,702362	4,598541
0,139000	0,652618	3,344116
0,140000	0,700684	2,702942
0,141000	0,663605	3,687592
0,142000	0,694580	4,999847
0,143000	0,675201	4,999847
0,144000	0,687561	4,999847
0,145000	0,682526	4,999847
0,146000	0,679779	4,999847
0,147000	0,692596	4,999847
0,148000	0,673370	4,999847
0,149000	0,700378	4,522552
0,150000	0,671539	2,329254
0,151000	0,711365	3,419342
0,152000	0,671387	4,484863
0,153000	0,720215	4,999847
0,154000	0,672302	4,999847
0,155000	0,717010	4,999847
0,156000	0,679169	4,999847
0,157000	0,707092	4,999847
0,158000	0,691681	4,817657
0,159000	0,698700	4,242249
0,160000	0,666351	3,488464
0,161000	0,657043	4,897766
0,162000	0,675507	4,999847
0,163000	0,651398	4,999847
0,164000	0,684204	4,999847
0,165000	0,646057	4,999847
0,166000	0,693359	4,999847
0,167000	0,637054	4,999847
0,168000	0,699463	4,999847
0,169000	0,639801	4,460297
0,170000	0,688171	3,972778
0,171000	0,656433	3,685760
0,172000	0,682678	4,262085
0,173000	0,673370	4,066467
0,174000	0,679626	4,999847
0,175000	0,685120	4,999847
0,176000	0,669098	4,999847
0,177000	0,693665	4,999847
0,178000	0,661163	4,949493
0,179000	0,703583	4,265289
0,180000	0,657501	3,147583
0,181000	0,712738	3,978424
0,182000	0,655365	4,999847
0,183000	0,721741	4,999847
0,184000	0,669861	4,999847
0,185000	0,712280	4,999847
0,186000	0,684204	4,999847
0,187000	0,704956	4,999847
0,188000	0,697174	4,933472
0,189000	0,695648	4,180756
0,190000	0,707092	2,026978
0,191000	0,679626	4,014282
0,192000	0,712891	4,510040
0,193000	0,674286	4,999847
0,194000	0,723572	4,999847
0,195000	0,668945	4,999847
0,196000	0,733795	4,999847
0,197000	0,668182	4,999847
0,198000	0,734406	4,999847
0,199000	0,681152	4,450226
0,200000	0,721130	3,222198
0,201000	0,694580	3,414612
0,202000	0,709229	4,718933
0,203000	0,707397	4,999847
0,204000	0,696869	4,999847
0,205000	0,716400	4,999847
0,206000	0,684814	4,999847
0,207000	0,726318	4,999847
0,208000	0,665741	4,999847
0,209000	0,733795	4,148254
0,210000	0,664368	3,619843
0,211000	0,748444	3,359375
0,212000	0,671692	3,775177
0,213000	0,742035	4,407196
0,214000	0,690308	4,999847
0,215000	0,729370	4,999847
0,216000	0,711365	4,999847
0,217000	0,719299	4,999847
0,218000	0,725250	4,999847
0,219000	0,691376	3,234558
0,220000	0,731201	2,545624
0,221000	0,688171	4,999847
0,222000	0,706177	4,229279
0,223000	0,666809	4,999847
0,224000	0,740967	4,999847
0,225000	0,685577	4,999847
0,226000	0,776215	4,999847
0,227000	0,708008	4,999847
0,228000	0,770721	4,999847
0,229000	0,722809	4,073334
0,230000	0,758667	3,611755
0,231000	0,738678	3,907166
0,232000	0,746460	3,702850
0,233000	0,753632	4,999847
0,234000	0,727844	4,999847
0,235000	0,760956	4,999847
0,236000	0,710297	4,999847
0,237000	0,771332	4,999847
0,238000	0,709839	4,839783
0,239000	0,788422	3,445282
0,240000	0,700378	3,836365
0,241000	0,795898	4,187775
0,242000	0,719299	4,999847
0,243000	0,785675	4,999847
0,244000	0,741425	4,999847
0,245000	0,772858	4,999847
0,246000	0,757599	4,999847
0,247000	0,760803	4,999847
0,248000	0,776062	4,999847
0,249000	0,754547	4,310913
0,250000	0,794983	3,698578
0,251000	0,749664	4,443512
0,252000	0,808411	4,071960
0,253000	0,729370	4,960937
0,254000	0,814667	4,999847
0,255000	0,726471	4,999847
0,256000	0,821838	4,999847
0,257000	0,746613	4,999847
0,258000	0,810852	4,257202
0,259000	0,767059	3,156281
0,260000	0,783844	4,007568
0,261000	0,780182	3,033600
0,262000	0,786743	4,999847
0,263000	0,801392	4,999847
0,264000	0,769653	4,999847
0,265000	0,814362	4,999847
0,266000	0,757751	4,999847
0,267000	0,827942	4,999847
0,268000	0,741272	4,999847
0,269000	0,840302	3,805237
0,270000	0,760193	4,025421
0,271000	0,850220	3,717957
0,272000	0,774994	3,207245
0,273000	0,839996	4,999847
0,274000	0,796814	4,999847
0,275000	0,824127	4,999847
0,276000	0,810852	4,999847
0,277000	0,797577	4,999847
0,278000	0,823822	4,999847
0,279000	0,794678	3,634491
0,280000	0,843353	2,278137
0,281000	0,768890	4,242554
0,282000	0,851288	4,841919
0,283000	0,759277	4,999847
0,284000	0,864868	4,999847
0,285000	0,780029	4,999847
0,286000	0,872040	4,999847
0,287000	0,805817	4,999847
0,288000	0,860748	4,999847
0,289000	0,820465	3,983917
0,290000	0,830536	3,016052
0,291000	0,831757	4,011536
0,292000	0,816193	3,509064
0,293000	0,848694	4,999847
0,294000	0,800018	4,999847
0,295000	0,863342	4,999847
0,296000	0,785065	4,999847
0,297000	0,875244	4,999847
0,298000	0,793152	4,999847
0,299000	0,885468	2,952576
0,300000	0,813599	3,962860
0,301000	0,882721	3,847809
0,302000	0,824280	3,857422
0,303000	0,866394	4,999847
0,304000	0,840759	4,999847
0,305000	0,844574	4,999847
0,306000	0,857544	4,999847
0,307000	0,821838	4,999847
0,308000	0,867157	4,676361
0,309000	0,806885	3,446198
0,310000	0,880127	4,434509
0,311000	0,799103	3,274231
0,312000	0,889130	3,645172
0,313000	0,809326	4,999847
0,314000	0,890350	4,999847
0,315000	0,830841	4,999847
0,316000	0,888367	4,999847
0,317000	0,850525	4,999847
0,318000	0,869598	4,999847
0,319000	0,859528	2,897491
0,320000	0,839386	4,313507
0,321000	0,868530	2,962189
0,322000	0,821228	4,999847
0,323000	0,879822	4,999847
0,324000	0,748444	4,999847
0,325000	0,867004	4,999847
0,326000	0,774689	4,999847
0,327000	0,888062	4,999847
0,328000	0,800476	4,999847
0,329000	0,886078	4,282837
0,330000	0,824738	2,878418
0,331000	0,867462	4,300842
0,332000	0,844727	4,091187
0,333000	0,852051	4,999847
0,334000	0,865021	4,999847
0,335000	0,834503	4,999847
0,336000	0,879211	4,999847
0,337000	0,817413	4,999847
0,338000	0,888214	4,571838
0,339000	0,801697	3,913422
0,340000	0,892029	3,068695
0,341000	0,802002	4,272003
0,342000	0,893402	4,406891
0,343000	0,827789	4,999847
0,344000	0,889587	4,999847
0,345000	0,765533	4,999847
0,346000	0,699921	4,999847
0,347000	0,670166	4,999847
0,348000	0,656433	4,528198
0,349000	0,650024	4,210663
0,350000	0,646973	4,278259
0,351000	0,645447	3,855133
0,352000	0,644989	4,904633
0,353000	0,644531	4,562683
0,354000	0,644379	4,999847
0,355000	0,644684	4,999847
0,356000	0,643616	4,999847
0,357000	0,643616	4,999847
0,358000	0,644073	4,715271
0,359000	0,643463	3,846436
0,360000	0,643616	3,833313
0,361000	0,643463	3,231964
0,362000	0,643311	4,999847
0,363000	0,643463	4,999847
0,364000	0,643463	4,999847
0,365000	0,643311	4,999847
0,366000	0,643463	4,999847
0,367000	0,643616	4,999847
0,368000	0,643616	4,999847
0,369000	0,643311	4,565582
0,370000	0,625458	4,011230
0,371000	0,606079	3,321838
0,372000	0,596619	4,361572
0,373000	0,591125	4,999847
0,374000	0,587006	4,999847
0,375000	0,587769	4,999847
0,376000	0,588989	4,999847
0,377000	0,591278	4,999847
0,378000	0,592499	4,720001
0,379000	0,590820	4,067535
0,380000	0,588684	2,596741
0,381000	0,588531	4,634094
0,382000	0,585785	4,999847
0,383000	0,577698	4,999847
0,384000	0,579681	4,999847
0,385000	0,577393	4,999847
0,386000	0,577393	4,999847
0,387000	0,582123	4,999847
0,388000	0,584717	4,999847
0,389000	0,584869	4,517059
0,390000	0,585480	3,113708
0,391000	0,582581	3,962708
0,392000	0,579681	3,113098
0,393000	0,577698	4,999847
0,394000	0,579987	4,999847
0,395000	0,582123	4,999847
0,396000	0,582581	4,999847
0,397000	0,579224	4,999847
0,398000	0,575562	4,186554
0,399000	0,576019	4,042816
0,400000	0,575104	3,473358
0,401000	0,573883	3,521118
0,402000	0,569000	4,999847
0,403000	0,569611	4,999847
0,404000	0,573273	4,999847
0,405000	0,575714	4,999847
0,406000	0,572968	4,999847
0,407000	0,571747	4,999847
0,408000	0,566254	4,666443
0,409000	0,566864	3,956909
0,410000	0,567169	2,673035
0,411000	0,568542	4,999847
0,412000	0,569763	4,329987
0,413000	0,569763	4,999847
0,414000	0,569000	4,999847
0,415000	0,571594	4,999847
0,416000	0,575714	4,999847
0,417000	0,576782	4,999847
0,418000	0,576935	4,430695
0,419000	0,576477	4,126892
0,420000	0,575104	4,049683
0,421000	0,571136	4,103851
0,422000	0,574493	4,999847
0,423000	0,578156	4,999847
0,424000	0,579224	4,999847
0,425000	0,580902	4,999847
0,426000	0,562592	4,999847
0,427000	0,555725	4,999847
0,428000	0,574036	4,999847
0,429000	0,581512	4,393768
0,430000	0,582123	2,856140
0,431000	0,587769	4,999847
0,432000	0,589600	4,440918
0,433000	0,590363	4,999847
0,434000	0,589752	4,999847
0,435000	0,588837	4,999847
0,436000	0,587769	4,999847
0,437000	0,589600	4,999847
0,438000	0,595703	4,281464
0,439000	0,595856	3,622742
0,440000	0,596161	2,621460
0,441000	0,592499	4,047089
0,442000	0,594025	4,922485
0,443000	0,594482	4,999847
0,444000	0,597076	4,999847
0,445000	0,599518	4,999847
0,446000	0,598145	4,999847
0,447000	0,599670	4,999847
0,448000	0,598297	4,999847
0,449000	0,597076	4,521179
0,450000	0,595856	3,031769
0,451000	0,592346	4,999847
0,452000	0,586853	3,547058
0,453000	0,585632	4,653320
0,454000	0,585022	4,999847
0,455000	0,586090	4,999847
0,456000	0,589142	4,999847
0,457000	0,587616	4,999847
0,458000	0,588379	4,999847
0,459000	0,590668	3,522339
0,460000	0,589142	3,057709
0,461000	0,590210	4,156952
0,462000	0,593414	4,148254
0,463000	0,590363	4,999847
0,464000	0,592651	4,999847
0,465000	0,593109	4,999847
0,466000	0,594635	4,999847
0,467000	0,592346	4,999847
0,468000	0,593414	4,999847
0,469000	0,591431	4,640198
0,470000	0,594177	2,944336
0,471000	0,595398	4,296722
0,472000	0,594635	4,236145
0,473000	0,597534	4,721680
0,474000	0,599823	4,999847
0,475000	0,596771	4,999847
0,476000	0,595856	4,999847
0,477000	0,601349	4,999847
0,478000	0,600891	4,999847
0,479000	0,605164	3,227539
0,480000	0,597534	3,470764
0,481000	0,600433	3,989868
0,482000	0,597382	4,882507
0,483000	0,600586	4,999847
0,484000	0,597382	4,999847
0,485000	0,593567	4,999847
0,486000	0,592499	4,999847
0,487000	0,586395	4,999847
0,488000	0,587463	4,999847
0,489000	0,587006	4,641418
0,490000	0,591888	2,911224
0,491000	0,591888	4,282074
0,492000	0,597382	3,313141
0,493000	0,594482	4,999847
0,494000	0,601807	4,999847
0,495000	0,597076	4,999847
0,496000	0,602264	4,999847
0,497000	0,600739	4,999847
0,498000	0,604553	4,999847
0,499000	0,601044	2,920837
0,500000	0,599976	4,080505
0,501000	0,599518	3,759308
0,502000	0,592957	4,545746
0,503000	0,596771	4,999847
0,504000	0,588837	4,999847
0,505000	0,594940	4,999847
0,506000	0,586548	4,999847
0,507000	0,596771	4,999847
0,508000	0,582886	4,999847
0,509000	0,597534	4,750214
0,510000	0,592804	3,638916
0,511000	0,601044	4,605560
0,512000	0,599365	4,066772
0,513000	0,606689	4,833527
0,514000	0,608063	4,999847
0,515000	0,609283	4,999847
0,516000	0,613556	4,999847
0,517000	0,609131	4,999847
0,518000	0,615845	4,999847
0,519000	0,604858	3,416748
0,520000	0,614777	3,919525
0,521000	0,600586	3,189087
0,522000	0,616608	4,999847
0,523000	0,605011	4,999847
0,524000	0,618439	4,999847
0,525000	0,607452	4,999847
0,526000	0,613098	4,999847
0,527000	0,607910	4,999847
0,528000	0,615082	4,999847
0,529000	0,585022	3,800354
0,530000	0,600281	3,314209
0,531000	0,614319	4,187164
0,532000	0,609436	3,846588
0,533000	0,623779	4,999847
0,534000	0,612030	4,999847
0,535000	0,630035	4,999847
0,536000	0,614166	4,999847
0,537000	0,636139	4,999847
0,538000	0,620270	4,999847
0,539000	0,636902	3,154297
0,540000	0,624847	3,688049
0,541000	0,634003	4,247894
0,542000	0,629883	4,980469
0,543000	0,628357	4,999847
0,544000	0,631256	4,999847
0,545000	0,624542	4,999847
0,546000	0,635529	4,999847
0,547000	0,626984	4,999847
0,548000	0,644836	4,999847
0,549000	0,627136	4,685364
0,550000	0,649872	3,582611
0,551000	0,627441	4,219818
0,552000	0,652466	3,475494
0,553000	0,631714	4,999847
0,554000	0,648041	4,999847
0,555000	0,635834	4,999847
0,556000	0,641327	4,999847
0,557000	0,637360	4,999847
0,558000	0,634766	4,999847
0,559000	0,643158	3,288879
0,560000	0,637207	4,220428
0,561000	0,653992	3,546753
0,562000	0,635223	4,999847
0,563000	0,658417	4,999847
0,564000	0,623627	4,999847
0,565000	0,659027	4,999847
0,566000	0,625000	4,999847
0,567000	0,658569	4,999847
0,568000	0,632172	4,966125
0,569000	0,652618	4,794464
0,570000	0,640259	4,225616
0,571000	0,648499	4,166107
0,572000	0,650482	3,018188
0,573000	0,647736	4,999847
0,574000	0,660553	4,999847
0,575000	0,642090	4,999847
0,576000	0,664673	4,999847
0,577000	0,642395	4,999847
0,578000	0,673676	4,068298
0,579000	0,644226	3,719177
0,580000	0,683441	4,999847
0,581000	0,651398	3,826447
0,582000	0,680847	4,999847
0,583000	0,658417	4,999847
0,584000	0,673828	4,999847
0,585000	0,666199	4,999847
0,586000	0,667572	4,999847
0,587000	0,670624	4,999847
0,588000	0,657501	4,603577
0,589000	0,675354	4,941254
0,590000	0,653229	3,588562
0,591000	0,683136	4,647217
0,592000	0,649719	3,363495
0,593000	0,690765	4,999847
0,594000	0,643311	4,999847
0,595000	0,694122	4,999847
0,596000	0,653839	4,999847
0,597000	0,687866	4,999847
0,598000	0,668488	4,438019
0,599000	0,683289	4,116516
0,600000	0,675812	4,494171
0,601000	0,673828	2,391205
0,602000	0,682526	4,996948
0,603000	0,666656	4,999847
0,604000	0,691986	4,999847
0,605000	0,658569	4,999847
0,606000	0,697479	4,999847
0,607000	0,652008	4,999847
0,608000	0,706024	4,755249
0,609000	0,652771	4,550629
0,610000	0,706177	2,639923
0,611000	0,663300	3,466797
0,612000	0,696259	3,868408
0,613000	0,676880	4,999847
0,614000	0,685577	4,999847
0,615000	0,682983	4,999847
0,616000	0,671692	4,999847
0,617000	0,693054	4,999847
0,618000	0,673065	4,136353
0,619000	0,707397	4,063721
0,620000	0,665894	4,275208
0,621000	0,715332	3,715668
0,622000	0,662994	4,423370
0,623000	0,726776	4,999847
0,624000	0,663605	4,999847
0,625000	0,719147	4,999847
0,626000	0,681458	4,999847
0,627000	0,713501	4,999847
0,628000	0,695343	4,971313
0,629000	0,700989	4,999847
0,630000	0,706024	4,428101
0,631000	0,657196	3,462830
0,632000	0,682373	4,425201
0,633000	0,670166	4,999847
0,634000	0,721283	4,999847
0,635000	0,673370	4,999847
0,636000	0,734406	4,999847
0,637000	0,669861	4,999847
0,638000	0,745544	3,818512
0,639000	0,681763	3,541718
0,640000	0,733948	3,807068
0,641000	0,695648	2,570953
0,642000	0,722504	4,999847
0,643000	0,711670	4,999847
0,644000	0,711823	4,999847
0,645000	0,749054	4,999847
0,646000	0,728607	4,999847
0,647000	0,766296	4,999847
0,648000	0,731049	4,999847
0,649000	0,783997	4,720612
0,650000	0,688324	3,047485
0,651000	0,756989	4,089813
0,652000	0,677032	4,985199
0,653000	0,760956	4,999847
0,654000	0,698853	4,999847
0,655000	0,749817	4,999847
0,656000	0,717468	4,999847
0,657000	0,740509	4,999847
0,658000	0,732880	4,359589
0,659000	0,732117	4,745636
0,660000	0,749664	3,968201
0,661000	0,729675	3,533173
0,662000	0,765381	4,164429
0,663000	0,726318	4,999847
0,664000	0,777893	4,999847
0,665000	0,715485	4,999847
0,666000	0,786591	4,999847
0,667000	0,723114	4,999847
0,668000	0,797272	4,929962
0,669000	0,738068	4,551544
0,670000	0,782623	2,367096
0,671000	0,749969	3,522491
0,672000	0,768127	3,847656
0,673000	0,761871	4,999847
0,674000	0,750580	4,999847
0,675000	0,768738	4,999847
0,676000	0,731812	4,999847
0,677000	0,778809	4,999847
0,678000	0,731354	4,999847
0,679000	0,796051	4,765472
0,680000	0,733032	4,030609
0,681000	0,813904	4,338226
0,682000	0,742950	4,431152
0,683000	0,820770	4,999847
0,684000	0,758820	4,999847
0,685000	0,804291	4,999847
0,686000	0,772552	4,999847
0,687000	0,794678	4,999847
0,688000	0,788116	4,531555
0,689000	0,772552	4,483337
0,690000	0,795135	3,238373
0,691000	0,752106	4,096680
0,692000	0,803986	3,554535
0,693000	0,733948	4,999847
0,694000	0,812683	4,999847
0,695000	0,726013	4,999847
0,696000	0,825348	4,999847
0,697000	0,747833	4,999847
0,698000	0,829163	4,999847
0,699000	0,771179	3,593445
0,700000	0,820160	3,464508
0,701000	0,791931	3,095093
0,702000	0,805969	4,999847
0,703000	0,805511	4,999847
0,704000	0,791321	4,999847
0,705000	0,819855	4,999847
0,706000	0,772095	4,999847
0,707000	0,830231	4,999847
0,708000	0,765839	4,999847
0,709000	0,847626	4,716797
0,710000	0,766449	2,561188
0,711000	0,861969	3,644562
0,712000	0,791016	3,045349
0,713000	0,863495	4,999847
0,714000	0,801849	4,999847
0,715000	0,839996	4,999847
0,716000	0,814056	4,999847
0,717000	0,820160	4,999847
0,718000	0,825500	4,999847
0,719000	0,797119	4,036102
0,720000	0,838165	4,355316
0,721000	0,780334	4,698181
0,722000	0,850372	4,170380
0,723000	0,761261	4,999847
0,724000	0,862579	4,999847
0,725000	0,779877	4,999847
0,726000	0,874176	4,999847
0,727000	0,794220	4,999847
0,728000	0,870361	4,999847
0,729000	0,816193	3,899536
0,730000	0,848694	3,063202
0,731000	0,832367	4,999847
0,732000	0,822296	3,804169
0,733000	0,835419	4,436798
0,734000	0,768127	4,999847
0,735000	0,839539	4,999847
0,736000	0,779419	4,999847
0,737000	0,866394	4,999847
0,738000	0,778046	4,999847
0,739000	0,882874	3,378754
0,740000	0,797272	4,385376
0,741000	0,883942	4,758606
0,742000	0,814362	4,999847
0,743000	0,873871	4,999847
0,744000	0,833740	4,999847
0,745000	0,845642	4,999847
0,746000	0,847168	4,999847
0,747000	0,822601	4,999847
0,748000	0,859985	4,999847
0,749000	0,807190	4,633636
0,750000	0,873871	3,083649
0,751000	0,792236	4,999847
0,752000	0,884094	4,222107
0,753000	0,782776	4,999847
0,754000	0,887909	4,999847
0,755000	0,806580	4,999847
0,756000	0,876770	4,999847
0,757000	0,821075	4,999847
0,758000	0,853577	4,999847
0,759000	0,838623	3,569641
0,760000	0,834808	2,895050
0,761000	0,856934	3,115540
0,762000	0,816956	4,902191
0,763000	0,872192	4,999847
0,764000	0,802612	4,999847
0,765000	0,883636	4,999847
0,766000	0,784912	4,999847
0,767000	0,889893	4,999847
0,768000	0,799255	4,961090
0,769000	0,891113	4,859009
0,770000	0,823059	4,092255
0,771000	0,882263	4,799194
0,772000	0,841522	3,457794
0,773000	0,858307	4,999847
0,774000	0,859222	4,999847
0,775000	0,849152	4,999847
0,776000	0,879211	4,999847
0,777000	0,828094	4,999847
0,778000	0,887146	4,335022
0,779000	0,806274	3,462677
0,780000	0,891418	4,389343
0,781000	0,795135	4,234009
0,782000	0,893707	4,263458
0,783000	0,778351	4,999847
0,784000	0,706482	4,999847
0,785000	0,673828	4,999847
0,786000	0,658722	4,999847
0,787000	0,651703	4,999847
0,788000	0,648193	4,999847
0,789000	0,646973	3,967896
0,790000	0,646057	3,963776
0,791000	0,645905	4,999847
0,792000	0,646057	3,752747
0,793000	0,645294	4,999847
0,794000	0,644836	4,999847
0,795000	0,644531	4,999847
0,796000	0,644836	4,999847
0,797000	0,644684	4,999847
0,798000	0,644989	4,999847
0,799000	0,644989	3,629608
0,800000	0,644684	4,393463
0,801000	0,644684	4,031219
0,802000	0,644379	4,999847
0,803000	0,644836	4,999847
0,804000	0,644836	4,999847
0,805000	0,644836	4,999847
0,806000	0,644531	4,999847
0,807000	0,642090	4,999847
0,808000	0,613098	4,999847
0,809000	0,598297	3,946228
0,810000	0,590973	4,168243
0,811000	0,587616	4,892120
0,812000	0,583954	3,215942
0,813000	0,584259	4,999847
0,814000	0,584717	4,999847
0,815000	0,579224	4,999847
0,816000	0,570374	4,999847
0,817000	0,547791	4,999847
0,818000	0,561829	4,999847
0,819000	0,566711	3,098755
0,820000	0,573120	4,558105
0,821000	0,568237	2,674866
0,822000	0,565033	4,999847
0,823000	0,559235	4,999847
0,824000	0,551758	4,999847
0,825000	0,550842	4,999847
0,826000	0,553131	4,999847
0,827000	0,554657	4,999847
0,828000	0,556030	4,999847
0,829000	0,561829	4,830017
0,830000	0,565338	3,785248
0,831000	0,563507	4,999847
0,832000	0,562439	4,033051
0,833000	0,557861	4,999847
0,834000	0,553436	4,999847
0,835000	0,557098	4,999847
0,836000	0,513916	4,999847
0,837000	0,537109	4,999847
0,838000	0,546570	4,999847
0,839000	0,549164	4,521484
0,840000	0,549164	3,881531
0,841000	0,541687	4,390259
0,842000	0,554352	4,808197
0,843000	0,561676	4,999847
0,844000	0,560150	4,999847
0,845000	0,562286	4,999847
0,846000	0,566559	4,999847
0,847000	0,570068	4,999847
0,848000	0,571899	4,999847
0,849000	0,574341	3,990173
0,850000	0,570984	4,196014
0,851000	0,563507	3,509216
0,852000	0,570221	4,544525
0,853000	0,574799	4,999847
0,854000	0,578156	4,999847
0,855000	0,581512	4,999847
0,856000	0,582733	4,999847
0,857000	0,580902	4,999847
0,858000	0,581970	4,916077
0,859000	0,583801	3,843994
0,860000	0,582581	4,656525
0,861000	0,584564	4,169006
0,862000	0,588379	4,482422
0,863000	0,588226	4,999847
0,864000	0,591736	4,999847
0,865000	0,595856	4,999847
0,866000	0,593567	4,999847
0,867000	0,592041	4,999847
0,868000	0,590210	4,080505
0,869000	0,579224	4,378357
0,870000	0,579529	3,737335
0,871000	0,582123	4,999847
0,872000	0,581055	4,042206
0,873000	0,580139	4,999847
0,874000	0,576630	4,999847
0,875000	0,569153	4,999847
0,876000	0,567169	4,999847
0,877000	0,570831	4,999847
0,878000	0,572205	4,688416
0,879000	0,570679	3,310852
0,880000	0,572968	3,452606
0,881000	0,573730	4,355164
0,882000	0,574799	4,999847
0,883000	0,576630	4,999847
0,884000	0,582123	4,999847
0,885000	0,582428	4,999847
0,886000	0,581665	4,999847
0,887000	0,582733	4,999847
0,888000	0,581970	4,999847
0,889000	0,581055	4,789886
0,890000	0,575104	3,214417
0,891000	0,572510	4,593658
0,892000	0,572968	4,765472
0,893000	0,568848	4,999847
0,894000	0,558472	4,999847
0,895000	0,557556	4,999847
0,896000	0,561371	4,999847
0,897000	0,560455	4,999847
0,898000	0,559845	4,738007
0,899000	0,561676	3,694916
0,900000	0,559845	3,563843
0,901000	0,558014	3,300476
0,902000	0,556183	4,939880
0,903000	0,554199	4,999847
0,904000	0,550385	4,999847
0,905000	0,551910	4,999847
0,906000	0,546112	4,999847
0,907000	0,550995	4,999847
0,908000	0,554047	4,999847
0,909000	0,559387	4,416962
0,910000	0,554504	3,388367
0,911000	0,551910	4,844666
0,912000	0,536804	4,246368
0,913000	0,543823	4,999847
0,914000	0,543060	4,999847
0,915000	0,546875	4,999847
0,916000	0,549774	4,999847
0,917000	0,554352	4,999847
0,918000	0,561218	4,244537
0,919000	0,551453	3,605499
0,920000	0,559235	3,177795
0,921000	0,549164	3,921814
0,922000	0,559540	4,999847
0,923000	0,536652	4,999847
0,924000	0,556946	4,999847
0,925000	0,543671	4,999847
0,926000	0,558929	4,999847
0,927000	0,553436	4,999847
0,928000	0,561066	4,866943
0,929000	0,559387	4,978027
0,930000	0,556183	2,992249
0,931000	0,561218	4,999847
0,932000	0,556641	4,999847
0,933000	0,567627	4,835052
0,934000	0,557404	4,999847
0,935000	0,572815	4,999847
0,936000	0,554199	4,999847
0,937000	0,575104	4,999847
0,938000	0,533905	4,658203
0,939000	0,522766	4,521027
0,940000	0,529327	2,341766
0,941000	0,558929	4,687347
0,942000	0,554962	4,762268
0,943000	0,564117	4,999847
0,944000	0,564423	4,999847
0,945000	0,565338	4,999847
0,946000	0,574188	4,999847
0,947000	0,564880	4,999847
0,948000	0,581207	4,999847
0,949000	0,567932	4,136200
0,950000	0,588837	3,209076
0,951000	0,565186	4,999847
0,952000	0,593719	3,554230
0,953000	0,490417	4,999847
0,954000	0,557556	4,999847
0,955000	0,565796	4,999847
0,956000	0,587921	4,999847
0,957000	0,584869	4,999847
0,958000	0,587311	4,999847
0,959000	0,590057	4,048920
0,960000	0,579071	3,298340
0,961000	0,592041	3,635254
0,962000	0,579987	4,602661
0,963000	0,601501	4,999847
0,964000	0,588226	4,999847
0,965000	0,611725	4,999847
0,966000	0,595093	4,999847
0,967000	0,620117	4,999847
0,968000	0,603790	4,999847
0,969000	0,619049	4,008179
0,970000	0,604248	3,727722
0,971000	0,616913	4,930573
0,972000	0,616913	4,459839
0,973000	0,618134	4,999847
0,974000	0,620880	4,999847
0,975000	0,613403	4,999847
0,976000	0,624542	4,999847
0,977000	0,613251	4,999847
0,978000	0,631866	4,660797
0,979000	0,612793	3,620758
0,980000	0,636597	3,648529
0,981000	0,612183	3,055725
0,982000	0,639191	4,547729
0,983000	0,619812	4,999847
0,984000	0,635681	4,999847
0,985000	0,625763	4,999847
0,986000	0,632935	4,999847
0,987000	0,630951	4,999847
0,988000	0,628662	4,999847
0,989000	0,636749	4,701385
0,990000	0,626984	3,338776
0,991000	0,655060	4,999847
0,992000	0,636444	3,690033
0,993000	0,661011	4,999847
0,994000	0,633850	4,999847
0,995000	0,665588	4,999847
0,996000	0,635071	4,999847
0,997000	0,663910	4,999847
0,998000	0,628204	4,795227
0,999000	0,647278	3,725281

