LabVIEW Measurement	
Writer_Version	2
Reader_Version	2
Separator	Tab
Decimal_Separator	,
Multi_Headings	Yes
X_Columns	One
Time_Pref	Absolute
Operator	d.nicolai
Date	2023/11/09
Time	16:04:05,6565121999996605588
***End_of_Header***	
	
Channels	2		
Samples	1000	1000	
Date	2023/11/09	2023/11/09	
Time	16:04:39,7235127999996258663	16:04:39,7235127999996258663	
Y_Unit_Label	Volts	Volts	
X_Dimension	Time	Time	
X0	0,0000000000000000E+0	0,0000000000000000E+0	
Delta_X	0,001000	0,001000	
***End_of_Header***			
X_Value	powebox	triggerbox	Comment
0,000000	0,583191	1,056519
0,001000	0,574036	4,940491
0,002000	0,576477	3,463287
0,003000	0,574951	4,999847
0,004000	0,574493	4,999847
0,005000	0,550385	4,999847
0,006000	0,557556	4,999847
0,007000	0,545959	4,999847
0,008000	0,549164	4,972076
0,009000	0,539246	3,280640
0,010000	0,545807	3,311462
0,011000	0,548859	3,690948
0,012000	0,550385	4,395905
0,013000	0,550842	4,999847
0,014000	0,555115	4,999847
0,015000	0,539398	4,999847
0,016000	0,544281	4,999847
0,017000	0,553284	4,999847
0,018000	0,547943	4,760742
0,019000	0,552979	4,561310
0,020000	0,549622	3,712616
0,021000	0,554047	2,946930
0,022000	0,505524	3,706055
0,023000	0,494843	4,999847
0,024000	0,534363	4,999847
0,025000	0,549774	4,999847
0,026000	0,558319	4,999847
0,027000	0,564880	4,992676
0,028000	0,561371	4,930725
0,029000	0,554047	2,726288
0,030000	0,564270	3,122253
0,031000	0,565338	3,841553
0,032000	0,571289	4,375305
0,033000	0,571442	4,999847
0,034000	0,571442	4,999847
0,035000	0,572357	4,999847
0,036000	0,566711	4,999847
0,037000	0,575104	4,999847
0,038000	0,572662	4,999847
0,039000	0,574951	3,657990
0,040000	0,576782	4,479218
0,041000	0,582733	3,940582
0,042000	0,585785	4,169769
0,043000	0,583649	4,999847
0,044000	0,580750	4,999847
0,045000	0,582428	4,999847
0,046000	0,582275	4,999847
0,047000	0,579987	4,999847
0,048000	0,574799	4,632874
0,049000	0,573883	3,406982
0,050000	0,571136	3,381653
0,051000	0,572052	4,508972
0,052000	0,577698	4,597015
0,053000	0,587921	4,999847
0,054000	0,592957	4,999847
0,055000	0,596771	4,999847
0,056000	0,604401	4,999847
0,057000	0,606995	4,999847
0,058000	0,605316	4,999847
0,059000	0,602722	3,591461
0,060000	0,597076	3,292389
0,061000	0,601349	4,014435
0,062000	0,598145	3,535004
0,063000	0,596619	4,999847
0,064000	0,594177	4,999847
0,065000	0,590057	4,999847
0,066000	0,581970	4,999847
0,067000	0,580902	4,999847
0,068000	0,574799	4,239502
0,069000	0,566559	3,603363
0,070000	0,564880	2,908173
0,071000	0,564880	4,999847
0,072000	0,563965	4,999847
0,073000	0,568695	4,999847
0,074000	0,571442	4,999847
0,075000	0,568542	4,999847
0,076000	0,567322	4,999847
0,077000	0,558472	4,999847
0,078000	0,559387	4,876251
0,079000	0,552826	3,922119
0,080000	0,557861	4,750061
0,081000	0,556030	3,279114
0,082000	0,556335	4,400635
0,083000	0,558472	4,972839
0,084000	0,560760	4,999847
0,085000	0,564117	4,999847
0,086000	0,520630	4,999847
0,087000	0,552368	4,999847
0,088000	0,559540	4,275360
0,089000	0,568390	2,575684
0,090000	0,573425	2,955322
0,091000	0,588226	3,899841
0,092000	0,586853	4,999847
0,093000	0,590973	4,999847
0,094000	0,588837	4,999847
0,095000	0,595093	4,999847
0,096000	0,594025	4,999847
0,097000	0,592804	4,999847
0,098000	0,591888	4,500122
0,099000	0,593567	3,513184
0,100000	0,599823	2,610931
0,101000	0,598145	4,460297
0,102000	0,602570	3,673706
0,103000	0,598602	4,999847
0,104000	0,602722	4,999847
0,105000	0,588379	4,999847
0,106000	0,596924	4,999847
0,107000	0,592346	4,999847
0,108000	0,598297	4,929962
0,109000	0,596466	3,712921
0,110000	0,601044	3,159790
0,111000	0,602112	3,593750
0,112000	0,601349	4,973450
0,113000	0,603943	4,999847
0,114000	0,599213	4,999847
0,115000	0,604401	4,999847
0,116000	0,595703	4,999847
0,117000	0,606079	4,999847
0,118000	0,591736	4,690247
0,119000	0,606537	4,077148
0,120000	0,592499	3,833466
0,121000	0,604401	4,201965
0,122000	0,592957	3,845062
0,123000	0,601654	4,999847
0,124000	0,600281	4,999847
0,125000	0,600739	4,999847
0,126000	0,604858	4,999847
0,127000	0,598297	4,999847
0,128000	0,607300	4,234924
0,129000	0,598450	3,054047
0,130000	0,613098	3,204956
0,131000	0,596313	3,944855
0,132000	0,616608	4,999847
0,133000	0,590057	4,999847
0,134000	0,616760	4,999847
0,135000	0,591888	4,999847
0,136000	0,613403	4,999847
0,137000	0,606079	4,999847
0,138000	0,613098	4,469757
0,139000	0,610199	3,731232
0,140000	0,607452	2,376709
0,141000	0,615540	4,684448
0,142000	0,611115	4,498291
0,143000	0,624695	4,999847
0,144000	0,609894	4,999847
0,145000	0,631409	4,999847
0,146000	0,610809	4,999847
0,147000	0,643005	4,999847
0,148000	0,612335	4,817963
0,149000	0,643158	3,812866
0,150000	0,620117	3,503265
0,151000	0,638428	4,962006
0,152000	0,627899	4,999847
0,153000	0,635071	4,999847
0,154000	0,634308	4,999847
0,155000	0,630646	4,999847
0,156000	0,642395	4,999847
0,157000	0,629730	4,999847
0,158000	0,649719	4,999847
0,159000	0,628510	4,745026
0,160000	0,656281	2,491302
0,161000	0,624084	4,903107
0,162000	0,662384	3,897552
0,163000	0,622101	4,999847
0,164000	0,655212	4,999847
0,165000	0,626831	4,999847
0,166000	0,645599	4,999847
0,167000	0,632172	4,999847
0,168000	0,637207	4,530182
0,169000	0,641937	3,437653
0,170000	0,635223	3,470459
0,171000	0,652313	4,366608
0,172000	0,632019	4,999847
0,173000	0,660706	4,999847
0,174000	0,631561	4,999847
0,175000	0,670319	4,999847
0,176000	0,617065	4,999847
0,177000	0,670166	4,999847
0,178000	0,622406	4,999847
0,179000	0,658417	4,447784
0,180000	0,627747	3,076630
0,181000	0,652161	4,493561
0,182000	0,645142	3,725891
0,183000	0,648804	4,999847
0,184000	0,654602	4,999847
0,185000	0,638275	4,999847
0,186000	0,662079	4,999847
0,187000	0,628662	4,983673
0,188000	0,656281	4,999847
0,189000	0,575562	3,663940
0,190000	0,628357	2,815247
0,191000	0,570374	4,427185
0,192000	0,654907	4,999847
0,193000	0,619049	4,999847
0,194000	0,661621	4,999847
0,195000	0,631409	4,999847
0,196000	0,649261	4,999847
0,197000	0,649719	4,999847
0,198000	0,642700	4,999847
0,199000	0,662689	3,635864
0,200000	0,639038	3,023376
0,201000	0,673370	4,192352
0,202000	0,630798	4,183197
0,203000	0,682678	4,999847
0,204000	0,622864	4,999847
0,205000	0,691528	4,999847
0,206000	0,626068	4,999847
0,207000	0,686035	4,999847
0,208000	0,643005	4,999847
0,209000	0,675507	3,636627
0,210000	0,657501	4,587402
0,211000	0,666809	3,237762
0,212000	0,671539	4,999847
0,213000	0,655060	4,999847
0,214000	0,680847	4,999847
0,215000	0,649109	4,999847
0,216000	0,692291	4,999847
0,217000	0,644989	4,999847
0,218000	0,705109	4,999847
0,219000	0,636292	4,227448
0,220000	0,711212	2,848206
0,221000	0,627594	3,536987
0,222000	0,591583	3,948975
0,223000	0,566406	4,999847
0,224000	0,660095	4,999847
0,225000	0,618286	4,999847
0,226000	0,694122	4,999847
0,227000	0,626068	4,999847
0,228000	0,713043	4,999847
0,229000	0,650482	3,763733
0,230000	0,706482	3,932953
0,231000	0,665283	3,628693
0,232000	0,693512	4,999847
0,233000	0,680084	4,999847
0,234000	0,682068	4,999847
0,235000	0,695190	4,999847
0,236000	0,675964	4,999847
0,237000	0,709076	4,999847
0,238000	0,663910	4,999847
0,239000	0,717163	4,369965
0,240000	0,643311	2,579803
0,241000	0,722046	4,999847
0,242000	0,635529	3,831635
0,243000	0,724640	4,999847
0,244000	0,652313	4,999847
0,245000	0,705261	4,999847
0,246000	0,664673	4,999847
0,247000	0,690002	4,999847
0,248000	0,685425	4,999847
0,249000	0,685425	2,578888
0,250000	0,706177	2,950592
0,251000	0,669250	4,021759
0,252000	0,714417	4,999847
0,253000	0,661316	4,999847
0,254000	0,731964	4,999847
0,255000	0,653839	4,999847
0,256000	0,743866	4,999847
0,257000	0,647888	4,999847
0,258000	0,734863	4,999847
0,259000	0,669861	3,436737
0,260000	0,718231	3,395996
0,261000	0,688171	4,373169
0,262000	0,705719	3,709259
0,263000	0,708008	4,999847
0,264000	0,695190	4,999847
0,265000	0,723724	4,999847
0,266000	0,678253	4,999847
0,267000	0,735626	4,999847
0,268000	0,661621	4,999847
0,269000	0,745392	3,877258
0,270000	0,650787	1,961517
0,271000	0,759125	4,508057
0,272000	0,665131	4,999847
0,273000	0,743256	4,999847
0,274000	0,682068	4,999847
0,275000	0,724640	4,999847
0,276000	0,700836	4,999847
0,277000	0,707397	4,999847
0,278000	0,718231	4,999847
0,279000	0,692139	4,355927
0,280000	0,734406	2,007904
0,281000	0,676422	4,547729
0,282000	0,749359	3,091888
0,283000	0,665894	4,999847
0,284000	0,763702	4,999847
0,285000	0,652618	4,999847
0,286000	0,766296	4,999847
0,287000	0,674744	4,999847
0,288000	0,753937	4,310150
0,289000	0,703735	2,856445
0,290000	0,738373	2,634277
0,291000	0,699921	4,307404
0,292000	0,710602	4,035950
0,293000	0,736847	4,999847
0,294000	0,703735	4,999847
0,295000	0,758209	4,999847
0,296000	0,691223	4,999847
0,297000	0,773315	4,999847
0,298000	0,680847	4,999847
0,299000	0,788269	3,207397
0,300000	0,682526	1,502228
0,301000	0,796204	4,900055
0,302000	0,710297	3,740540
0,303000	0,775604	4,999847
0,304000	0,732117	4,999847
0,305000	0,759277	4,999847
0,306000	0,752411	4,999847
0,307000	0,741425	4,999847
0,308000	0,769806	4,999847
0,309000	0,728455	2,948151
0,310000	0,787201	4,945068
0,311000	0,717316	3,390503
0,312000	0,802002	4,497528
0,313000	0,706635	4,999847
0,314000	0,818024	4,999847
0,315000	0,715637	4,999847
0,316000	0,812073	4,999847
0,317000	0,735931	4,999847
0,318000	0,790558	4,999847
0,319000	0,755920	3,898926
0,320000	0,761871	4,922180
0,321000	0,770264	3,814545
0,322000	0,747223	4,246674
0,323000	0,788574	4,999847
0,324000	0,732574	4,999847
0,325000	0,804291	4,999847
0,326000	0,718384	4,999847
0,327000	0,819092	4,999847
0,328000	0,709381	4,683685
0,329000	0,830841	3,343048
0,330000	0,731659	3,626251
0,331000	0,812378	3,384857
0,332000	0,755005	4,774475
0,333000	0,797577	4,999847
0,334000	0,777740	4,999847
0,335000	0,778198	4,999847
0,336000	0,795135	4,999847
0,337000	0,761566	4,999847
0,338000	0,812378	4,726257
0,339000	0,746460	4,292297
0,340000	0,827942	4,400940
0,341000	0,735168	4,115601
0,342000	0,844879	3,914185
0,343000	0,732574	4,999847
0,344000	0,845947	4,999847
0,345000	0,758514	4,999847
0,346000	0,832062	4,999847
0,347000	0,782928	4,999847
0,348000	0,815277	4,999847
0,349000	0,803833	3,276825
0,350000	0,798492	4,527740
0,351000	0,822601	2,989197
0,352000	0,778656	4,807892
0,353000	0,838165	4,999847
0,354000	0,765533	4,999847
0,355000	0,855713	4,999847
0,356000	0,753174	4,999847
0,357000	0,870514	4,999847
0,358000	0,763702	4,999847
0,359000	0,865326	3,991852
0,360000	0,787048	4,999847
0,361000	0,841064	3,327637
0,362000	0,805817	4,857941
0,363000	0,821838	4,999847
0,364000	0,825195	4,999847
0,365000	0,804749	4,999847
0,366000	0,843048	4,999847
0,367000	0,787659	4,999847
0,368000	0,860291	4,999847
0,369000	0,778351	3,759766
0,370000	0,877075	2,551727
0,371000	0,766907	3,396454
0,372000	0,886078	4,813080
0,373000	0,788116	4,999847
0,374000	0,876160	4,999847
0,375000	0,810089	4,999847
0,376000	0,851593	4,999847
0,377000	0,829620	4,999847
0,378000	0,830231	4,434357
0,379000	0,847015	4,587097
0,380000	0,819550	4,204254
0,381000	0,868378	3,016205
0,382000	0,802307	3,886566
0,383000	0,881195	4,889679
0,384000	0,784607	4,999847
0,385000	0,888977	4,999847
0,386000	0,782318	4,999847
0,387000	0,891724	4,999847
0,388000	0,807037	4,999847
0,389000	0,869598	3,890228
0,390000	0,752411	2,872009
0,391000	0,696411	4,376984
0,392000	0,670929	4,890747
0,393000	0,645294	4,999847
0,394000	0,629578	4,999847
0,395000	0,635071	4,999847
0,396000	0,642548	4,999847
0,397000	0,645752	4,999847
0,398000	0,647736	4,689178
0,399000	0,648346	4,017487
0,400000	0,648041	2,180023
0,401000	0,648346	4,111938
0,402000	0,648041	3,527527
0,403000	0,647736	4,999847
0,404000	0,647888	4,999847
0,405000	0,647888	4,999847
0,406000	0,647125	4,999847
0,407000	0,647278	4,999847
0,408000	0,647125	4,512024
0,409000	0,647278	4,351196
0,410000	0,646820	3,734283
0,411000	0,646973	3,106842
0,412000	0,594025	4,999847
0,413000	0,550079	4,999847
0,414000	0,538788	4,999847
0,415000	0,538483	4,999847
0,416000	0,535431	4,999847
0,417000	0,530853	4,999847
0,418000	0,526123	4,706879
0,419000	0,525208	4,999847
0,420000	0,529327	3,247070
0,421000	0,534515	4,499512
0,422000	0,536194	3,689728
0,423000	0,538483	4,999847
0,424000	0,538025	4,999847
0,425000	0,538177	4,999847
0,426000	0,534821	4,999847
0,427000	0,531921	4,999847
0,428000	0,533142	4,490204
0,429000	0,535126	4,545746
0,430000	0,544281	3,156891
0,431000	0,548859	4,999847
0,432000	0,556946	4,999847
0,433000	0,559235	4,999847
0,434000	0,563660	4,999847
0,435000	0,564270	4,999847
0,436000	0,566101	4,999847
0,437000	0,565033	4,999847
0,438000	0,564423	4,999847
0,439000	0,557861	4,915009
0,440000	0,559845	1,939240
0,441000	0,559998	4,619141
0,442000	0,561981	3,902435
0,443000	0,565948	4,973907
0,444000	0,568085	4,999847
0,445000	0,572357	4,999847
0,446000	0,572357	4,999847
0,447000	0,572968	4,999847
0,448000	0,570526	4,878998
0,449000	0,568848	3,422241
0,450000	0,564270	4,328461
0,451000	0,562592	4,150238
0,452000	0,562592	4,999847
0,453000	0,562592	4,999847
0,454000	0,561523	4,999847
0,455000	0,557098	4,999847
0,456000	0,554199	4,999847
0,457000	0,555725	4,999847
0,458000	0,561829	4,999847
0,459000	0,564880	4,407501
0,460000	0,565033	3,923798
0,461000	0,565033	2,847443
0,462000	0,566101	4,368591
0,463000	0,562134	4,999847
0,464000	0,563354	4,999847
0,465000	0,563965	4,999847
0,466000	0,566711	4,999847
0,467000	0,567017	4,999847
0,468000	0,564575	4,800415
0,469000	0,565338	3,662872
0,470000	0,565643	4,253387
0,471000	0,566101	2,945404
0,472000	0,567322	4,999847
0,473000	0,568695	4,999847
0,474000	0,565796	4,999847
0,475000	0,566864	4,999847
0,476000	0,562286	4,999847
0,477000	0,566711	4,999847
0,478000	0,564728	4,999847
0,479000	0,567474	4,381561
0,480000	0,567474	3,584900
0,481000	0,565643	4,999847
0,482000	0,566559	3,514404
0,483000	0,567627	4,999847
0,484000	0,568390	4,999847
0,485000	0,567932	4,999847
0,486000	0,563812	4,999847
0,487000	0,563202	4,999847
0,488000	0,567169	4,610443
0,489000	0,566254	3,393860
0,490000	0,566711	3,091278
0,491000	0,561218	4,685364
0,492000	0,563507	4,861603
0,493000	0,564728	4,999847
0,494000	0,569000	4,999847
0,495000	0,567322	4,999847
0,496000	0,535278	4,999847
0,497000	0,529327	4,999847
0,498000	0,527802	4,999847
0,499000	0,520935	4,865112
0,500000	0,522766	4,245605
0,501000	0,545959	3,472595
0,502000	0,556488	3,846283
0,503000	0,565491	4,999847
0,504000	0,565948	4,999847
0,505000	0,564880	4,999847
0,506000	0,565643	4,999847
0,507000	0,557709	4,999847
0,508000	0,551605	4,537201
0,509000	0,544739	4,100647
0,510000	0,551300	3,263550
0,511000	0,547943	3,996429
0,512000	0,533142	4,562836
0,513000	0,527954	4,999847
0,514000	0,525360	4,999847
0,515000	0,541077	4,999847
0,516000	0,532074	4,999847
0,517000	0,544128	4,999847
0,518000	0,527496	4,999847
0,519000	0,551910	3,808441
0,520000	0,525818	3,752441
0,521000	0,553436	4,570465
0,522000	0,531921	3,363800
0,523000	0,552368	4,577942
0,524000	0,543060	4,999847
0,525000	0,545502	4,999847
0,526000	0,550537	4,999847
0,527000	0,547180	4,999847
0,528000	0,559845	4,542999
0,529000	0,555420	3,795776
0,530000	0,562744	3,673248
0,531000	0,547485	4,627228
0,532000	0,570679	4,999847
0,533000	0,544128	4,999847
0,534000	0,571747	4,999847
0,535000	0,551147	4,999847
0,536000	0,571899	4,999847
0,537000	0,559692	4,999847
0,538000	0,566559	4,949799
0,539000	0,564575	3,983307
0,540000	0,563965	3,793945
0,541000	0,564728	3,575287
0,542000	0,560760	3,230743
0,543000	0,569153	4,999847
0,544000	0,552826	4,999847
0,545000	0,572357	4,999847
0,546000	0,558167	4,999847
0,547000	0,586243	4,999847
0,548000	0,566864	4,772797
0,549000	0,597534	3,015594
0,550000	0,573120	3,377838
0,551000	0,589752	3,971405
0,552000	0,580292	4,999847
0,553000	0,593109	4,999847
0,554000	0,590057	4,999847
0,555000	0,588074	4,999847
0,556000	0,596008	4,999847
0,557000	0,590210	4,999847
0,558000	0,600128	4,923096
0,559000	0,580139	3,668976
0,560000	0,606384	2,821808
0,561000	0,587769	4,345856
0,562000	0,613251	4,152069
0,563000	0,585937	4,999847
0,564000	0,616760	4,999847
0,565000	0,599060	4,999847
0,566000	0,617371	4,999847
0,567000	0,606232	4,999847
0,568000	0,614014	4,484711
0,569000	0,612946	3,712463
0,570000	0,613251	2,367706
0,571000	0,615845	4,688721
0,572000	0,609131	4,999847
0,573000	0,624542	4,999847
0,574000	0,599518	4,999847
0,575000	0,625763	4,999847
0,576000	0,591888	4,999847
0,577000	0,628204	4,999847
0,578000	0,590210	4,999847
0,579000	0,623627	3,729401
0,580000	0,596313	3,934479
0,581000	0,617981	3,592834
0,582000	0,604706	3,602295
0,583000	0,609131	4,999847
0,584000	0,614014	4,999847
0,585000	0,609436	4,999847
0,586000	0,622711	4,999847
0,587000	0,604706	4,999847
0,588000	0,630646	4,246674
0,589000	0,600128	3,607330
0,590000	0,636749	3,830261
0,591000	0,590210	4,178772
0,592000	0,639801	4,999847
0,593000	0,584259	4,999847
0,594000	0,628357	4,999847
0,595000	0,602112	4,999847
0,596000	0,623474	4,999847
0,597000	0,615692	4,999847
0,598000	0,586700	4,498749
0,599000	0,595093	4,125366
0,600000	0,606842	4,179535
0,601000	0,633850	3,914795
0,602000	0,614471	3,279572
0,603000	0,649261	4,999847
0,604000	0,610809	4,999847
0,605000	0,655365	4,999847
0,606000	0,603485	4,999847
0,607000	0,656738	4,999847
0,608000	0,614929	4,834137
0,609000	0,650635	4,061890
0,610000	0,630493	4,784546
0,611000	0,637970	3,339996
0,612000	0,629272	4,533844
0,613000	0,622864	4,999847
0,614000	0,635986	4,999847
0,615000	0,614471	4,999847
0,616000	0,643005	4,999847
0,617000	0,593872	4,999847
0,618000	0,647736	4,999847
0,619000	0,580750	4,032135
0,620000	0,653839	2,863312
0,621000	0,581360	4,511261
0,622000	0,649719	3,905182
0,623000	0,594177	4,999847
0,624000	0,634766	4,999847
0,625000	0,612488	4,999847
0,626000	0,630493	4,999847
0,627000	0,633087	4,999847
0,628000	0,621643	4,999847
0,629000	0,642853	4,176941
0,630000	0,609589	3,859558
0,631000	0,654755	3,766327
0,632000	0,599823	4,944611
0,633000	0,664215	4,999847
0,634000	0,591888	4,999847
0,635000	0,674133	4,999847
0,636000	0,596008	4,999847
0,637000	0,661469	4,999847
0,638000	0,612030	4,454041
0,639000	0,642700	4,906006
0,640000	0,624542	3,971710
0,641000	0,625763	2,898407
0,642000	0,627441	3,395081
0,643000	0,602417	4,999847
0,644000	0,638428	4,999847
0,645000	0,591278	4,999847
0,646000	0,657043	4,999847
0,647000	0,582428	4,999847
0,648000	0,670013	4,064636
0,649000	0,581970	3,677673
0,650000	0,678253	3,680725
0,651000	0,604095	3,142548
0,652000	0,665894	4,185638
0,653000	0,621948	4,999847
0,654000	0,650940	4,999847
0,655000	0,641785	4,999847
0,656000	0,643921	4,999847
0,657000	0,663300	4,999847
0,658000	0,630188	4,999847
0,659000	0,564270	4,181213
0,660000	0,537262	3,006592
0,661000	0,617065	4,450684
0,662000	0,634003	4,441833
0,663000	0,677032	4,999847
0,664000	0,641174	4,999847
0,665000	0,699005	4,999847
0,666000	0,636749	4,999847
0,667000	0,716248	4,999847
0,668000	0,627594	4,999847
0,669000	0,729218	4,278107
0,670000	0,631256	3,165741
0,671000	0,713959	3,382721
0,672000	0,657806	4,999847
0,673000	0,701904	4,999847
0,674000	0,679474	4,999847
0,675000	0,687714	4,999847
0,676000	0,695190	4,999847
0,677000	0,673981	4,999847
0,678000	0,710144	4,490051
0,679000	0,658264	4,373169
0,680000	0,724945	3,704071
0,681000	0,647125	3,430328
0,682000	0,738068	4,797211
0,683000	0,641022	4,999847
0,684000	0,747833	4,999847
0,685000	0,657349	4,999847
0,686000	0,727844	4,999847
0,687000	0,675659	4,999847
0,688000	0,708923	4,999847
0,689000	0,695801	3,871155
0,690000	0,689545	3,875427
0,691000	0,709229	3,085175
0,692000	0,675354	4,999847
0,693000	0,727386	4,999847
0,694000	0,660858	4,999847
0,695000	0,708771	4,999847
0,696000	0,620270	4,999847
0,697000	0,722809	4,999847
0,698000	0,615540	4,999847
0,699000	0,719757	4,850311
0,700000	0,624847	2,722626
0,701000	0,671844	3,758545
0,702000	0,657654	4,265594
0,703000	0,692444	4,999847
0,704000	0,688477	4,999847
0,705000	0,680389	4,999847
0,706000	0,708160	4,999847
0,707000	0,665436	4,999847
0,708000	0,724182	4,077454
0,709000	0,653687	4,084473
0,710000	0,742187	4,468536
0,711000	0,646210	3,584747
0,712000	0,759125	4,999847
0,713000	0,654602	4,999847
0,714000	0,750275	4,999847
0,715000	0,682373	4,999847
0,716000	0,731354	4,999847
0,717000	0,699005	4,999847
0,718000	0,711060	4,999847
0,719000	0,716095	3,975067
0,720000	0,695801	3,536682
0,721000	0,733490	3,145294
0,722000	0,681763	4,046173
0,723000	0,749207	4,999847
0,724000	0,669403	4,999847
0,725000	0,764008	4,999847
0,726000	0,665741	4,999847
0,727000	0,780640	4,999847
0,728000	0,682220	4,331970
0,729000	0,767517	4,436035
0,730000	0,706329	3,631897
0,731000	0,749054	3,143921
0,732000	0,725708	4,897919
0,733000	0,733032	4,999847
0,734000	0,745392	4,999847
0,735000	0,717010	4,999847
0,736000	0,761261	4,999847
0,737000	0,704803	4,999847
0,738000	0,777435	4,749603
0,739000	0,695648	4,261627
0,740000	0,793457	2,744141
0,741000	0,686951	4,765778
0,742000	0,805817	4,418335
0,743000	0,712738	4,999847
0,744000	0,787506	4,999847
0,745000	0,732574	4,999847
0,746000	0,766144	4,999847
0,747000	0,751648	4,982910
0,748000	0,749664	4,999847
0,749000	0,769501	3,681335
0,750000	0,736084	3,513947
0,751000	0,787811	3,585663
0,752000	0,722046	4,999847
0,753000	0,801544	4,999847
0,754000	0,706482	4,999847
0,755000	0,814819	4,999847
0,756000	0,705109	4,999847
0,757000	0,808868	4,999847
0,758000	0,728912	4,999847
0,759000	0,785980	4,097137
0,760000	0,750275	3,376770
0,761000	0,776062	4,999847
0,762000	0,773315	2,913818
0,763000	0,762939	4,999847
0,764000	0,792999	4,999847
0,765000	0,749207	4,999847
0,766000	0,810242	4,999847
0,767000	0,736237	4,999847
0,768000	0,826569	4,999847
0,769000	0,726929	3,807831
0,770000	0,842743	2,826843
0,771000	0,739746	4,261932
0,772000	0,839844	4,616699
0,773000	0,764465	4,999847
0,774000	0,820312	4,999847
0,775000	0,784454	4,999847
0,776000	0,803375	4,999847
0,777000	0,803986	4,999847
0,778000	0,784760	4,986572
0,779000	0,821075	4,894104
0,780000	0,772858	3,071899
0,781000	0,840149	4,948273
0,782000	0,760956	2,792053
0,783000	0,857086	4,999847
0,784000	0,749054	4,999847
0,785000	0,867157	4,999847
0,786000	0,765076	4,999847
0,787000	0,843811	4,999847
0,788000	0,784607	4,877625
0,789000	0,826263	3,128967
0,790000	0,805206	3,448792
0,791000	0,807648	2,886047
0,792000	0,823669	4,848480
0,793000	0,793304	4,999847
0,794000	0,843353	4,999847
0,795000	0,780487	4,999847
0,796000	0,861206	4,999847
0,797000	0,764771	4,999847
0,798000	0,874176	4,999847
0,799000	0,765076	4,027710
0,800000	0,873260	3,824768
0,801000	0,785828	4,656525
0,802000	0,854645	3,418884
0,803000	0,785065	4,856262
0,804000	0,825958	4,999847
0,805000	0,822296	4,999847
0,806000	0,816956	4,999847
0,807000	0,846863	4,999847
0,808000	0,800629	4,999847
0,809000	0,863800	3,423004
0,810000	0,785217	4,075012
0,811000	0,878143	4,592590
0,812000	0,774994	4,999847
0,813000	0,887909	4,999847
0,814000	0,781097	4,999847
0,815000	0,877533	4,999847
0,816000	0,805969	4,999847
0,817000	0,854645	4,999847
0,818000	0,826263	4,999847
0,819000	0,837555	4,782410
0,820000	0,846863	3,357086
0,821000	0,822449	4,126282
0,822000	0,865784	3,650055
0,823000	0,807953	4,999847
0,824000	0,880890	4,999847
0,825000	0,796356	4,999847
0,826000	0,890656	4,999847
0,827000	0,783844	4,999847
0,828000	0,709229	4,999847
0,829000	0,675964	4,337311
0,830000	0,659943	4,128723
0,831000	0,652618	2,863922
0,832000	0,649719	4,999847
0,833000	0,648499	4,999847
0,834000	0,647430	4,999847
0,835000	0,647278	4,999847
0,836000	0,646820	4,999847
0,837000	0,646667	4,999847
0,838000	0,646362	4,999847
0,839000	0,646362	4,506378
0,840000	0,646820	3,221893
0,841000	0,646515	3,488922
0,842000	0,646973	3,191986
0,843000	0,646667	4,999847
0,844000	0,647125	4,999847
0,845000	0,647278	4,999847
0,846000	0,647125	4,999847
0,847000	0,647430	4,999847
0,848000	0,647430	4,999847
0,849000	0,575867	3,164215
0,850000	0,520020	3,938141
0,851000	0,501251	3,682098
0,852000	0,496979	4,999847
0,853000	0,495300	4,999847
0,854000	0,492554	4,999847
0,855000	0,491943	4,999847
0,856000	0,496063	4,999847
0,857000	0,499115	4,999847
0,858000	0,501862	4,999847
0,859000	0,501862	4,331970
0,860000	0,501251	3,543854
0,861000	0,503082	4,633636
0,862000	0,501556	3,731995
0,863000	0,499420	4,624023
0,864000	0,500336	4,999847
0,865000	0,508575	4,999847
0,866000	0,512848	4,999847
0,867000	0,521393	4,999847
0,868000	0,514679	4,699402
0,869000	0,518799	3,863678
0,870000	0,511932	4,564362
0,871000	0,518036	4,132080
0,872000	0,517426	4,624481
0,873000	0,525513	4,999847
0,874000	0,524139	4,999847
0,875000	0,520020	4,999847
0,876000	0,524445	4,999847
0,877000	0,523529	4,999847
0,878000	0,526886	4,640350
0,879000	0,528107	4,401245
0,880000	0,527802	3,707581
0,881000	0,527496	4,570007
0,882000	0,530243	3,755493
0,883000	0,523834	4,999847
0,884000	0,529175	4,999847
0,885000	0,524597	4,999847
0,886000	0,527649	4,999847
0,887000	0,527802	4,999847
0,888000	0,527802	4,999847
0,889000	0,528259	3,602600
0,890000	0,526581	4,245758
0,891000	0,529175	3,523712
0,892000	0,529938	4,999847
0,893000	0,527191	4,999847
0,894000	0,525513	4,999847
0,895000	0,524139	4,999847
0,896000	0,524902	4,999847
0,897000	0,516815	4,999847
0,898000	0,506439	4,999847
0,899000	0,504913	4,999847
0,900000	0,503998	3,501434
0,901000	0,501862	4,585419
0,902000	0,512543	4,320679
0,903000	0,520782	4,999847
0,904000	0,522614	4,999847
0,905000	0,503998	4,999847
0,906000	0,506439	4,999847
0,907000	0,518646	4,999847
0,908000	0,525208	4,999847
0,909000	0,529327	4,385071
0,910000	0,536652	4,348145
0,911000	0,533142	3,807678
0,912000	0,531921	4,999847
0,913000	0,529938	4,999847
0,914000	0,537415	4,999847
0,915000	0,536957	4,999847
0,916000	0,541229	4,999847
0,917000	0,540009	4,999847
0,918000	0,544586	4,999847
0,919000	0,549927	4,230042
0,920000	0,552979	3,293610
0,921000	0,551758	3,083954
0,922000	0,551605	4,064789
0,923000	0,558014	4,999847
0,924000	0,558929	4,999847
0,925000	0,554047	4,999847
0,926000	0,555267	4,999847
0,927000	0,555267	4,999847
0,928000	0,547333	4,251709
0,929000	0,551605	4,042816
0,930000	0,552979	4,170990
0,931000	0,549469	2,632904
0,932000	0,548401	4,999847
0,933000	0,546875	4,999847
0,934000	0,546875	4,999847
0,935000	0,555115	4,999847
0,936000	0,552216	4,999847
0,937000	0,553589	4,999847
0,938000	0,555267	4,999847
0,939000	0,562897	4,847412
0,940000	0,552979	3,128815
0,941000	0,553284	3,737183
0,942000	0,552368	3,765869
0,943000	0,555573	4,999847
0,944000	0,558319	4,999847
0,945000	0,562592	4,999847
0,946000	0,556183	4,999847
0,947000	0,563354	4,999847
0,948000	0,563812	4,999847
0,949000	0,553436	4,128265
0,950000	0,552368	3,887329
0,951000	0,544128	4,317322
0,952000	0,554047	4,770660
0,953000	0,550537	4,999847
0,954000	0,557251	4,999847
0,955000	0,528717	4,999847
0,956000	0,553131	4,999847
0,957000	0,516663	4,999847
0,958000	0,547791	4,999847
0,959000	0,509949	4,858093
0,960000	0,528717	3,003693
0,961000	0,512543	4,923706
0,962000	0,525055	4,610901
0,963000	0,526733	4,647675
0,964000	0,514832	4,999847
0,965000	0,528412	4,999847
0,966000	0,509033	4,999847
0,967000	0,537415	4,999847
0,968000	0,514679	4,799652
0,969000	0,552368	3,904266
0,970000	0,520477	2,875977
0,971000	0,564423	4,228058
0,972000	0,535431	4,999847
0,973000	0,558014	4,999847
0,974000	0,535278	4,999847
0,975000	0,554657	4,999847
0,976000	0,549316	4,999847
0,977000	0,549316	4,999847
0,978000	0,555573	4,999847
0,979000	0,543213	4,269867
0,980000	0,561066	3,197174
0,981000	0,534363	4,819794
0,982000	0,566559	4,298553
0,983000	0,537415	4,999847
0,984000	0,577087	4,999847
0,985000	0,529022	4,999847
0,986000	0,580902	4,999847
0,987000	0,548859	4,999847
0,988000	0,575714	4,354095
0,989000	0,565186	3,471069
0,990000	0,576477	3,723145
0,991000	0,567627	3,728485
0,992000	0,570679	4,486237
0,993000	0,578766	4,999847
0,994000	0,574341	4,999847
0,995000	0,587921	4,999847
0,996000	0,570679	4,999847
0,997000	0,599060	4,999847
0,998000	0,564880	4,999847
0,999000	0,601807	3,761139

