LabVIEW Measurement	
Writer_Version	2
Reader_Version	2
Separator	Tab
Decimal_Separator	,
Multi_Headings	Yes
X_Columns	One
Time_Pref	Absolute
Operator	d.nicolai
Date	2023/11/09
Time	16:04:05,6565121999996605588
***End_of_Header***	
	
Channels	2		
Samples	1000	1000	
Date	2023/11/09	2023/11/09	
Time	16:04:13,1305128999999329182	16:04:13,1305128999999329182	
Y_Unit_Label	Volts	Volts	
X_Dimension	Time	Time	
X0	0,0000000000000000E+0	0,0000000000000000E+0	
Delta_X	0,001000	0,001000	
***End_of_Header***			
X_Value	powebox	triggerbox	Comment
0,000000	0,577087	1,028900
0,001000	0,573120	4,399872
0,002000	0,573883	3,150482
0,003000	0,575104	4,999847
0,004000	0,582886	4,999847
0,005000	0,574341	4,999847
0,006000	0,584412	4,999847
0,007000	0,576935	4,999847
0,008000	0,590210	4,902649
0,009000	0,579529	2,657776
0,010000	0,594330	4,270020
0,011000	0,584564	3,330231
0,012000	0,597076	4,430237
0,013000	0,594025	4,999847
0,014000	0,600433	4,999847
0,015000	0,598297	4,999847
0,016000	0,595551	4,999847
0,017000	0,598145	4,999847
0,018000	0,589447	4,999847
0,019000	0,600586	3,153839
0,020000	0,589600	3,542633
0,021000	0,605316	3,115540
0,022000	0,601959	3,988190
0,023000	0,617065	4,739380
0,024000	0,606232	4,999847
0,025000	0,619354	4,999847
0,026000	0,608063	4,999847
0,027000	0,618286	4,999847
0,028000	0,614471	4,609680
0,029000	0,618744	3,372498
0,030000	0,619354	1,057892
0,031000	0,618439	4,627533
0,032000	0,621948	4,999847
0,033000	0,613403	4,999847
0,034000	0,625153	4,999847
0,035000	0,616302	4,999847
0,036000	0,631409	4,999847
0,037000	0,618591	4,999847
0,038000	0,636139	4,999847
0,039000	0,619812	3,493195
0,040000	0,634766	2,565613
0,041000	0,623474	4,791718
0,042000	0,632935	4,131470
0,043000	0,628357	4,999847
0,044000	0,631561	4,999847
0,045000	0,633240	4,999847
0,046000	0,629578	4,999847
0,047000	0,637970	4,999847
0,048000	0,629883	4,999847
0,049000	0,643921	2,818298
0,050000	0,628662	3,709869
0,051000	0,647888	4,999847
0,052000	0,627289	4,999847
0,053000	0,651703	4,999847
0,054000	0,631256	4,999847
0,055000	0,648956	4,999847
0,056000	0,629883	4,999847
0,057000	0,606384	4,999847
0,058000	0,624542	4,850616
0,059000	0,635529	3,969574
0,060000	0,642853	4,999847
0,061000	0,636139	3,430634
0,062000	0,649567	3,541107
0,063000	0,634460	4,999847
0,064000	0,656128	4,999847
0,065000	0,628662	4,999847
0,066000	0,660400	4,999847
0,067000	0,627899	4,999847
0,068000	0,661926	4,045105
0,069000	0,637665	2,857361
0,070000	0,657043	2,904510
0,071000	0,643616	4,999847
0,072000	0,652008	4,208527
0,073000	0,651245	4,999847
0,074000	0,648956	4,999847
0,075000	0,658417	4,999847
0,076000	0,647125	4,999847
0,077000	0,666199	4,999847
0,078000	0,644073	4,999847
0,079000	0,672760	4,115601
0,080000	0,641632	3,426514
0,081000	0,678711	3,448334
0,082000	0,641937	4,538879
0,083000	0,676117	4,999847
0,084000	0,648193	4,999847
0,085000	0,669708	4,999847
0,086000	0,658569	4,999847
0,087000	0,664673	4,999847
0,088000	0,665894	4,975891
0,089000	0,657349	3,063660
0,090000	0,672150	3,423920
0,091000	0,649261	3,990326
0,092000	0,678864	4,393158
0,093000	0,643158	4,999847
0,094000	0,685120	4,999847
0,095000	0,637207	4,999847
0,096000	0,690765	4,999847
0,097000	0,642548	4,999847
0,098000	0,681305	4,301910
0,099000	0,651550	4,075775
0,100000	0,668793	2,936401
0,101000	0,657196	3,550262
0,102000	0,659332	4,575348
0,103000	0,667114	4,999847
0,104000	0,648956	4,999847
0,105000	0,675659	4,999847
0,106000	0,637360	4,999847
0,107000	0,683746	4,999847
0,108000	0,621185	4,260254
0,109000	0,687561	3,114471
0,110000	0,615387	3,285828
0,111000	0,688477	4,966431
0,112000	0,635376	4,999847
0,113000	0,679016	4,999847
0,114000	0,647888	4,999847
0,115000	0,668488	4,999847
0,116000	0,663452	4,999847
0,117000	0,662842	4,999847
0,118000	0,679474	4,999847
0,119000	0,652008	4,243927
0,120000	0,658875	3,305511
0,121000	0,623016	4,321136
0,122000	0,673676	4,526367
0,123000	0,622406	4,999847
0,124000	0,685577	4,999847
0,125000	0,623474	4,999847
0,126000	0,682831	4,999847
0,127000	0,638885	4,999847
0,128000	0,673065	3,912811
0,129000	0,652161	3,828430
0,130000	0,663605	2,989197
0,131000	0,665894	4,904480
0,132000	0,655212	4,521942
0,133000	0,677032	4,999847
0,134000	0,646057	4,999847
0,135000	0,686340	4,999847
0,136000	0,637970	4,999847
0,137000	0,695648	4,999847
0,138000	0,635071	4,744720
0,139000	0,707855	4,807129
0,140000	0,641174	3,466797
0,141000	0,695801	4,048920
0,142000	0,653687	3,797302
0,143000	0,686188	4,999847
0,144000	0,671692	4,999847
0,145000	0,676880	4,999847
0,146000	0,683746	4,999847
0,147000	0,668030	4,999847
0,148000	0,696716	4,102631
0,149000	0,660706	3,520355
0,150000	0,708313	2,819672
0,151000	0,649872	4,033966
0,152000	0,717010	4,502869
0,153000	0,643158	4,999847
0,154000	0,725708	4,999847
0,155000	0,658722	4,999847
0,156000	0,713501	4,999847
0,157000	0,673828	4,999847
0,158000	0,698395	4,406281
0,159000	0,654602	4,822388
0,160000	0,662384	4,476929
0,161000	0,691071	3,064575
0,162000	0,673981	4,848175
0,163000	0,714417	4,454498
0,164000	0,659790	4,999847
0,165000	0,720825	4,999847
0,166000	0,641632	4,999847
0,167000	0,728302	4,999847
0,168000	0,637512	4,749451
0,169000	0,728149	3,324890
0,170000	0,659180	2,789154
0,171000	0,713043	4,959412
0,172000	0,677795	4,999847
0,173000	0,696716	4,999847
0,174000	0,681305	4,999847
0,175000	0,660858	4,999847
0,176000	0,690460	4,999847
0,177000	0,659790	4,999847
0,178000	0,717621	4,999847
0,179000	0,651398	4,564667
0,180000	0,732117	2,391968
0,181000	0,643158	4,172363
0,182000	0,745544	4,406891
0,183000	0,644379	4,999847
0,184000	0,731812	4,999847
0,185000	0,667572	4,999847
0,186000	0,716095	4,999847
0,187000	0,688934	4,999847
0,188000	0,701447	4,166565
0,189000	0,707245	3,273163
0,190000	0,693359	3,417816
0,191000	0,730896	4,624329
0,192000	0,689850	4,957275
0,193000	0,748749	4,999847
0,194000	0,683441	4,999847
0,195000	0,764465	4,999847
0,196000	0,673676	4,999847
0,197000	0,777435	4,999847
0,198000	0,686646	4,459534
0,199000	0,762329	4,425659
0,200000	0,705109	3,418274
0,201000	0,746613	3,462982
0,202000	0,724182	3,816681
0,203000	0,729675	4,999847
0,204000	0,740356	4,999847
0,205000	0,720215	4,999847
0,206000	0,759735	4,999847
0,207000	0,709686	4,999847
0,208000	0,773621	4,999847
0,209000	0,694427	3,759155
0,210000	0,785828	2,873688
0,211000	0,684967	4,999847
0,212000	0,795898	4,644470
0,213000	0,709381	4,999847
0,214000	0,783844	4,999847
0,215000	0,730133	4,999847
0,216000	0,766296	4,999847
0,217000	0,747986	4,999847
0,218000	0,749969	4,999847
0,219000	0,765991	4,072418
0,220000	0,729828	3,972626
0,221000	0,775146	4,348755
0,222000	0,701294	4,000397
0,223000	0,783997	4,999847
0,224000	0,690765	4,999847
0,225000	0,800018	4,999847
0,226000	0,701599	4,999847
0,227000	0,807190	4,999847
0,228000	0,724945	4,705963
0,229000	0,785980	3,101654
0,230000	0,745087	3,842163
0,231000	0,769653	4,809723
0,232000	0,764313	4,999847
0,233000	0,754089	4,999847
0,234000	0,782318	4,999847
0,235000	0,749359	4,999847
0,236000	0,805206	4,999847
0,237000	0,744324	4,999847
0,238000	0,825043	4,999847
0,239000	0,736847	3,986359
0,240000	0,842590	3,426208
0,241000	0,751801	4,055176
0,242000	0,850220	3,809967
0,243000	0,770264	4,845581
0,244000	0,833740	4,999847
0,245000	0,789642	4,999847
0,246000	0,816956	4,999847
0,247000	0,807648	4,999847
0,248000	0,796661	4,999847
0,249000	0,823212	3,217773
0,250000	0,780792	3,235168
0,251000	0,838928	4,514008
0,252000	0,765076	4,999847
0,253000	0,739441	4,999847
0,254000	0,733643	4,999847
0,255000	0,730438	4,999847
0,256000	0,753326	4,999847
0,257000	0,854950	4,999847
0,258000	0,790253	4,999847
0,259000	0,843658	4,040985
0,260000	0,810242	4,174194
0,261000	0,808105	2,871857
0,262000	0,788727	4,999847
0,263000	0,787506	4,999847
0,264000	0,832367	4,999847
0,265000	0,783386	4,999847
0,266000	0,853119	4,999847
0,267000	0,770721	4,999847
0,268000	0,863342	4,999847
0,269000	0,772247	3,601990
0,270000	0,868530	3,233490
0,271000	0,792236	4,800720
0,272000	0,864258	4,999847
0,273000	0,810852	4,999847
0,274000	0,842590	4,999847
0,275000	0,827179	4,999847
0,276000	0,825653	4,999847
0,277000	0,845184	4,999847
0,278000	0,809174	4,999847
0,279000	0,858459	4,010162
0,280000	0,787659	4,730072
0,281000	0,865479	3,654022
0,282000	0,774841	3,871460
0,283000	0,871277	4,999847
0,284000	0,788574	4,999847
0,285000	0,871277	4,999847
0,286000	0,810089	4,999847
0,287000	0,865326	4,859161
0,288000	0,827637	4,999847
0,289000	0,843658	3,748932
0,290000	0,844727	2,774353
0,291000	0,826416	4,999847
0,292000	0,859680	4,786377
0,293000	0,810089	4,999847
0,294000	0,868988	4,999847
0,295000	0,793915	4,999847
0,296000	0,872955	4,999847
0,297000	0,780792	4,999847
0,298000	0,874481	4,999847
0,299000	0,765533	3,890991
0,300000	0,692596	3,379059
0,301000	0,659027	4,402771
0,302000	0,643768	3,961639
0,303000	0,636597	4,999847
0,304000	0,633698	4,999847
0,305000	0,632172	4,999847
0,306000	0,631409	4,999847
0,307000	0,631256	4,999847
0,308000	0,630798	4,999847
0,309000	0,630798	3,647766
0,310000	0,630341	4,537048
0,311000	0,630341	4,999847
0,312000	0,630035	4,946289
0,313000	0,630341	4,999847
0,314000	0,630188	4,999847
0,315000	0,629883	4,999847
0,316000	0,630035	4,999847
0,317000	0,630188	4,999847
0,318000	0,629578	4,999847
0,319000	0,623016	4,095917
0,320000	0,588074	4,203644
0,321000	0,568390	3,378448
0,322000	0,558319	4,285278
0,323000	0,549316	4,999847
0,324000	0,538483	4,999847
0,325000	0,548401	4,999847
0,326000	0,556641	4,999847
0,327000	0,560150	4,999847
0,328000	0,565033	4,605865
0,329000	0,565338	2,824249
0,330000	0,565796	3,905487
0,331000	0,565338	4,999847
0,332000	0,565796	4,999847
0,333000	0,565186	4,999847
0,334000	0,561066	4,999847
0,335000	0,562439	4,999847
0,336000	0,564575	4,999847
0,337000	0,565338	4,999847
0,338000	0,564575	4,846191
0,339000	0,564117	3,907623
0,340000	0,563660	4,922943
0,341000	0,565643	3,802490
0,342000	0,561676	4,071198
0,343000	0,564728	4,999847
0,344000	0,565338	4,999847
0,345000	0,565491	4,999847
0,346000	0,563507	4,999847
0,347000	0,557861	4,999847
0,348000	0,546722	4,043732
0,349000	0,552979	2,841187
0,350000	0,559082	3,607788
0,351000	0,560760	4,064026
0,352000	0,563202	4,999847
0,353000	0,563507	4,999847
0,354000	0,558929	4,999847
0,355000	0,558014	4,999847
0,356000	0,557251	4,999847
0,357000	0,554352	4,999847
0,358000	0,550537	4,999847
0,359000	0,545044	4,167328
0,360000	0,545349	4,779510
0,361000	0,537262	2,910309
0,362000	0,534821	4,882812
0,363000	0,523834	4,999847
0,364000	0,507355	4,999847
0,365000	0,519562	4,999847
0,366000	0,529633	4,999847
0,367000	0,537872	4,999847
0,368000	0,542297	4,973602
0,369000	0,540466	3,404999
0,370000	0,542145	3,557739
0,371000	0,545197	3,710480
0,372000	0,543518	4,999847
0,373000	0,532684	4,999847
0,374000	0,521545	4,999847
0,375000	0,516968	4,999847
0,376000	0,511322	4,999847
0,377000	0,520477	4,999847
0,378000	0,522308	4,923248
0,379000	0,534363	4,538879
0,380000	0,542297	4,278107
0,381000	0,547943	2,947388
0,382000	0,549469	4,999847
0,383000	0,553284	4,999847
0,384000	0,552979	4,999847
0,385000	0,550842	4,999847
0,386000	0,552216	4,999847
0,387000	0,549774	4,999847
0,388000	0,551453	4,572144
0,389000	0,550385	3,384857
0,390000	0,552826	4,062805
0,391000	0,547333	4,999847
0,392000	0,550079	4,999847
0,393000	0,547485	4,999847
0,394000	0,549164	4,999847
0,395000	0,549164	4,999847
0,396000	0,554352	4,999847
0,397000	0,554657	4,999847
0,398000	0,550385	4,713440
0,399000	0,553589	3,870392
0,400000	0,552063	2,885132
0,401000	0,550995	3,550568
0,402000	0,547638	4,530945
0,403000	0,550079	4,999847
0,404000	0,549774	4,999847
0,405000	0,551605	4,999847
0,406000	0,553131	4,999847
0,407000	0,553436	4,999847
0,408000	0,552063	4,999847
0,409000	0,549774	3,256531
0,410000	0,549622	3,091888
0,411000	0,550690	4,999847
0,412000	0,554199	4,999847
0,413000	0,554047	4,999847
0,414000	0,553894	4,999847
0,415000	0,550232	4,999847
0,416000	0,546112	4,999847
0,417000	0,548859	4,999847
0,418000	0,547791	4,999847
0,419000	0,551758	3,577271
0,420000	0,550842	4,200897
0,421000	0,551605	3,688660
0,422000	0,552063	4,527740
0,423000	0,553741	4,999847
0,424000	0,551605	4,999847
0,425000	0,554047	4,999847
0,426000	0,555420	4,999847
0,427000	0,553284	4,961090
0,428000	0,555573	4,999847
0,429000	0,552826	3,892059
0,430000	0,555420	2,423096
0,431000	0,554962	4,999847
0,432000	0,560303	4,999847
0,433000	0,557404	4,999847
0,434000	0,564423	4,999847
0,435000	0,567780	4,999847
0,436000	0,584869	4,999847
0,437000	0,578003	4,999847
0,438000	0,582428	4,999847
0,439000	0,583649	4,169464
0,440000	0,584412	3,369904
0,441000	0,583191	4,283295
0,442000	0,577698	4,999847
0,443000	0,583191	4,999847
0,444000	0,575867	4,999847
0,445000	0,587616	4,999847
0,446000	0,574341	4,999847
0,447000	0,591125	4,999847
0,448000	0,576172	4,999847
0,449000	0,594482	2,526093
0,450000	0,579376	2,717438
0,451000	0,591125	4,698181
0,452000	0,587311	4,999847
0,453000	0,594177	4,999847
0,454000	0,595703	4,999847
0,455000	0,595856	4,999847
0,456000	0,600739	4,999847
0,457000	0,597839	4,999847
0,458000	0,606537	4,771118
0,459000	0,597839	3,834381
0,460000	0,609894	4,127350
0,461000	0,597687	3,620453
0,462000	0,614166	3,721313
0,463000	0,599518	4,999847
0,464000	0,615845	4,999847
0,465000	0,603485	4,999847
0,466000	0,586243	4,999847
0,467000	0,581360	4,996033
0,468000	0,600891	4,821930
0,469000	0,609131	3,602295
0,470000	0,609589	4,233093
0,471000	0,616455	4,999847
0,472000	0,608368	4,999847
0,473000	0,622406	4,999847
0,474000	0,608673	4,999847
0,475000	0,627136	4,999847
0,476000	0,606689	4,999847
0,477000	0,631561	4,999847
0,478000	0,605469	4,999847
0,479000	0,628052	3,988037
0,480000	0,613556	4,298401
0,481000	0,625153	4,772949
0,482000	0,620422	4,151001
0,483000	0,622559	4,999847
0,484000	0,624237	4,999847
0,485000	0,617981	4,999847
0,486000	0,629272	4,999847
0,487000	0,614014	4,999847
0,488000	0,634460	4,648895
0,489000	0,615387	2,801666
0,490000	0,643005	3,694611
0,491000	0,613708	4,999847
0,492000	0,646515	4,999847
0,493000	0,617523	4,999847
0,494000	0,640259	4,999847
0,495000	0,622101	4,999847
0,496000	0,634155	4,999847
0,497000	0,628967	4,999847
0,498000	0,629120	4,999847
0,499000	0,636749	3,418732
0,500000	0,626373	2,249908
0,501000	0,643311	3,766022
0,502000	0,618134	3,897095
0,503000	0,646820	4,999847
0,504000	0,612640	4,999847
0,505000	0,652924	4,999847
0,506000	0,608978	4,999847
0,507000	0,651855	4,999847
0,508000	0,618286	4,999847
0,509000	0,646057	2,643738
0,510000	0,630493	4,350739
0,511000	0,639496	4,839935
0,512000	0,638733	4,999847
0,513000	0,636902	4,999847
0,514000	0,650024	4,999847
0,515000	0,636749	4,999847
0,516000	0,661926	4,999847
0,517000	0,636444	4,999847
0,518000	0,670166	4,999847
0,519000	0,632935	3,022156
0,520000	0,676880	2,885284
0,521000	0,634918	3,903809
0,522000	0,673981	4,203796
0,523000	0,646820	4,999847
0,524000	0,666199	4,999847
0,525000	0,653839	4,999847
0,526000	0,660095	4,999847
0,527000	0,630951	4,999847
0,528000	0,624847	4,884338
0,529000	0,644531	2,237854
0,530000	0,620422	4,628296
0,531000	0,653229	4,404907
0,532000	0,615540	4,999847
0,533000	0,662994	4,999847
0,534000	0,620422	4,999847
0,535000	0,672150	4,999847
0,536000	0,627747	4,999847
0,537000	0,663452	4,999847
0,538000	0,639801	4,999847
0,539000	0,658417	2,734070
0,540000	0,649719	4,999847
0,541000	0,649261	3,620148
0,542000	0,658112	4,242096
0,543000	0,645905	4,999847
0,544000	0,669861	4,999847
0,545000	0,644836	4,999847
0,546000	0,679779	4,999847
0,547000	0,634155	4,999847
0,548000	0,686035	4,512177
0,549000	0,630188	3,286285
0,550000	0,686798	2,338104
0,551000	0,641785	4,960937
0,552000	0,677490	4,999847
0,553000	0,654449	4,999847
0,554000	0,671234	4,999847
0,555000	0,665588	4,999847
0,556000	0,661469	4,999847
0,557000	0,676422	4,999847
0,558000	0,652313	4,999847
0,559000	0,685120	3,492889
0,560000	0,644989	4,557343
0,561000	0,690765	3,410492
0,562000	0,639038	4,847107
0,563000	0,699615	4,999847
0,564000	0,639343	4,999847
0,565000	0,694122	4,999847
0,566000	0,653229	4,999847
0,567000	0,685272	4,999847
0,568000	0,660858	3,835449
0,569000	0,641022	2,772980
0,570000	0,666199	3,170166
0,571000	0,663147	4,999847
0,572000	0,686493	4,999847
0,573000	0,658264	4,999847
0,574000	0,696411	4,999847
0,575000	0,646820	4,999847
0,576000	0,705872	4,999847
0,577000	0,634918	4,999847
0,578000	0,713196	4,542389
0,579000	0,643311	3,449860
0,580000	0,700684	4,638519
0,581000	0,658264	4,263763
0,582000	0,688171	4,815216
0,583000	0,672607	4,999847
0,584000	0,673523	4,999847
0,585000	0,684814	4,999847
0,586000	0,666656	4,999847
0,587000	0,699768	4,999847
0,588000	0,654449	4,792328
0,589000	0,709381	2,473755
0,590000	0,644073	4,604340
0,591000	0,718842	4,624786
0,592000	0,634308	4,999847
0,593000	0,724945	4,999847
0,594000	0,654144	4,999847
0,595000	0,709229	4,999847
0,596000	0,670471	4,999847
0,597000	0,694733	4,999847
0,598000	0,684662	4,418945
0,599000	0,675201	3,164978
0,600000	0,694275	4,718933
0,601000	0,659180	3,479767
0,602000	0,705414	4,999847
0,603000	0,646973	4,999847
0,604000	0,719147	4,999847
0,605000	0,639801	4,999847
0,606000	0,732574	4,999847
0,607000	0,636902	4,735107
0,608000	0,726929	4,150543
0,609000	0,660553	2,812347
0,610000	0,714569	3,281097
0,611000	0,682068	4,999847
0,612000	0,704041	4,999847
0,613000	0,700684	4,999847
0,614000	0,691376	4,999847
0,615000	0,718231	4,999847
0,616000	0,679169	4,999847
0,617000	0,732574	4,999847
0,618000	0,665588	4,999847
0,619000	0,743561	4,405365
0,620000	0,651245	4,219208
0,621000	0,753326	4,121857
0,622000	0,660400	4,999847
0,623000	0,748749	4,999847
0,624000	0,690308	4,999847
0,625000	0,741577	4,999847
0,626000	0,718689	4,999847
0,627000	0,816345	4,999847
0,628000	0,860901	4,477997
0,629000	0,872345	2,565002
0,630000	0,864868	3,735809
0,631000	0,864258	4,723511
0,632000	0,862885	4,999847
0,633000	0,741425	4,999847
0,634000	0,798187	4,999847
0,635000	0,727844	4,999847
0,636000	0,812378	4,999847
0,637000	0,752411	4,999847
0,638000	0,823822	4,999847
0,639000	0,759583	3,675842
0,640000	0,808716	4,999847
0,641000	0,774384	3,107605
0,642000	0,795593	4,830933
0,643000	0,787659	4,999847
0,644000	0,779114	4,999847
0,645000	0,798340	4,999847
0,646000	0,772095	4,999847
0,647000	0,816193	4,999847
0,648000	0,760803	4,999847
0,649000	0,828857	3,206329
0,650000	0,763092	1,770020
0,651000	0,847168	4,844513
0,652000	0,777893	4,999847
0,653000	0,854950	4,999847
0,654000	0,797882	4,999847
0,655000	0,847626	4,999847
0,656000	0,811920	4,999847
0,657000	0,834656	4,999847
0,658000	0,829773	4,999847
0,659000	0,820770	3,683319
0,660000	0,842133	3,241119
0,661000	0,813751	3,529358
0,662000	0,856171	4,893646
0,663000	0,800934	4,999847
0,664000	0,865173	4,999847
0,665000	0,807648	4,999847
0,666000	0,874481	4,999847
0,667000	0,827484	4,999847
0,668000	0,874786	4,755402
0,669000	0,838165	3,034515
0,670000	0,869904	3,247070
0,671000	0,810852	4,999847
0,672000	0,838928	4,999847
0,673000	0,846100	4,999847
0,674000	0,835876	4,999847
0,675000	0,862122	4,999847
0,676000	0,815125	4,999847
0,677000	0,865784	4,999847
0,678000	0,798187	4,999847
0,679000	0,871735	3,703461
0,680000	0,799561	4,218750
0,681000	0,872345	3,885956
0,682000	0,808105	4,890900
0,683000	0,868225	4,999847
0,684000	0,829620	4,999847
0,685000	0,858154	4,999847
0,686000	0,846863	4,999847
0,687000	0,842285	4,999847
0,688000	0,858612	4,624023
0,689000	0,819855	3,074341
0,690000	0,763855	3,093414
0,691000	0,747833	4,999847
0,692000	0,740662	4,913940
0,693000	0,737915	4,999847
0,694000	0,859070	4,999847
0,695000	0,822449	4,999847
0,696000	0,876923	4,999847
0,697000	0,833588	4,999847
0,698000	0,873718	4,999847
0,699000	0,843353	3,164520
0,700000	0,864105	4,180756
0,701000	0,855255	4,548340
0,702000	0,843048	4,999847
0,703000	0,865173	4,999847
0,704000	0,822754	4,999847
0,705000	0,870667	4,999847
0,706000	0,806274	4,999847
0,707000	0,874329	4,999847
0,708000	0,792694	4,624023
0,709000	0,877533	3,132782
0,710000	0,814514	2,778168
0,711000	0,875854	4,999847
0,712000	0,830688	4,999847
0,713000	0,872040	4,999847
0,714000	0,850525	4,999847
0,715000	0,868073	4,999847
0,716000	0,868835	4,999847
0,717000	0,836334	4,999847
0,718000	0,869446	4,999847
0,719000	0,818176	3,401031
0,720000	0,874176	4,693909
0,721000	0,820007	3,256378
0,722000	0,877686	4,410400
0,723000	0,821381	4,999847
0,724000	0,879059	4,999847
0,725000	0,845490	4,999847
0,726000	0,874634	4,999847
0,727000	0,841980	4,897614
0,728000	0,871582	4,867096
0,729000	0,861359	2,673645
0,730000	0,856171	3,008270
0,731000	0,870056	4,999847
0,732000	0,843353	4,999847
0,733000	0,876617	4,999847
0,734000	0,842896	4,999847
0,735000	0,877838	4,999847
0,736000	0,834503	4,999847
0,737000	0,735168	4,999847
0,738000	0,690155	4,999847
0,739000	0,669098	3,159027
0,740000	0,658264	4,999847
0,741000	0,656433	4,177704
0,742000	0,657806	4,855042
0,743000	0,659790	4,999847
0,744000	0,657806	4,999847
0,745000	0,657501	4,999847
0,746000	0,662384	4,999847
0,747000	0,663452	4,999847
0,748000	0,663605	4,999847
0,749000	0,662689	2,676086
0,750000	0,660858	3,635712
0,751000	0,663452	3,973389
0,752000	0,664825	4,999847
0,753000	0,664368	4,999847
0,754000	0,663910	4,999847
0,755000	0,664062	4,999847
0,756000	0,665131	4,999847
0,757000	0,661469	4,999847
0,758000	0,644989	4,999847
0,759000	0,634613	3,485870
0,760000	0,627747	4,179230
0,761000	0,631714	2,911224
0,762000	0,633087	4,999847
0,763000	0,634460	4,999847
0,764000	0,634308	4,999847
0,765000	0,639496	4,999847
0,766000	0,643616	4,999847
0,767000	0,643463	4,999847
0,768000	0,640869	4,830627
0,769000	0,639496	2,505493
0,770000	0,634308	3,503876
0,771000	0,637512	4,999847
0,772000	0,638275	4,999847
0,773000	0,619049	4,999847
0,774000	0,612640	4,999847
0,775000	0,622559	4,999847
0,776000	0,630951	4,999847
0,777000	0,632019	4,999847
0,778000	0,634155	4,999847
0,779000	0,632172	3,118134
0,780000	0,638123	4,999847
0,781000	0,639648	3,816071
0,782000	0,639801	4,999847
0,783000	0,638275	4,999847
0,784000	0,638580	4,999847
0,785000	0,633545	4,999847
0,786000	0,635681	4,999847
0,787000	0,633850	4,999847
0,788000	0,634460	4,447479
0,789000	0,631104	2,922821
0,790000	0,631409	3,367157
0,791000	0,632172	4,999847
0,792000	0,632019	4,999847
0,793000	0,632782	4,999847
0,794000	0,628204	4,999847
0,795000	0,625305	4,999847
0,796000	0,624390	4,999847
0,797000	0,629120	4,999847
0,798000	0,625763	4,999847
0,799000	0,619507	3,755341
0,800000	0,612640	4,999847
0,801000	0,610046	2,547760
0,802000	0,607147	4,999847
0,803000	0,602112	4,999847
0,804000	0,600586	4,999847
0,805000	0,601654	4,999847
0,806000	0,600281	4,999847
0,807000	0,598145	4,999847
0,808000	0,598450	3,603973
0,809000	0,601807	2,902527
0,810000	0,605621	2,425232
0,811000	0,604248	4,604797
0,812000	0,604553	4,999847
0,813000	0,599823	4,999847
0,814000	0,601196	4,999847
0,815000	0,598297	4,999847
0,816000	0,597992	4,999847
0,817000	0,596313	4,999847
0,818000	0,599060	4,494171
0,819000	0,601501	3,848877
0,820000	0,604248	4,999847
0,821000	0,602875	2,743073
0,822000	0,598450	4,999847
0,823000	0,596313	4,999847
0,824000	0,597076	4,999847
0,825000	0,600739	4,999847
0,826000	0,600128	4,999847
0,827000	0,600586	4,999847
0,828000	0,595093	3,852844
0,829000	0,594940	2,805328
0,830000	0,591736	2,925415
0,831000	0,594177	4,644318
0,832000	0,599365	4,999847
0,833000	0,599060	4,999847
0,834000	0,595093	4,999847
0,835000	0,595093	4,999847
0,836000	0,601654	4,999847
0,837000	0,603790	4,999847
0,838000	0,609589	4,999847
0,839000	0,611420	3,748627
0,840000	0,613556	3,919067
0,841000	0,610504	3,692474
0,842000	0,615540	4,999847
0,843000	0,612183	4,999847
0,844000	0,617676	4,999847
0,845000	0,615692	4,999847
0,846000	0,620117	4,999847
0,847000	0,621490	4,999847
0,848000	0,612030	4,046783
0,849000	0,613708	3,199310
0,850000	0,618896	2,361755
0,851000	0,617523	4,973602
0,852000	0,615997	4,999847
0,853000	0,622253	4,999847
0,854000	0,618896	4,999847
0,855000	0,623627	4,999847
0,856000	0,616302	4,999847
0,857000	0,615387	4,999847
0,858000	0,612183	4,772797
0,859000	0,618591	4,030609
0,860000	0,615082	3,177338
0,861000	0,613861	3,226624
0,862000	0,616455	4,999847
0,863000	0,615997	4,999847
0,864000	0,617371	4,999847
0,865000	0,615234	4,999847
0,866000	0,622711	4,999847
0,867000	0,620117	4,999847
0,868000	0,622864	4,999847
0,869000	0,616608	2,912903
0,870000	0,619812	2,534332
0,871000	0,612335	4,999847
0,872000	0,619354	4,999847
0,873000	0,605774	4,999847
0,874000	0,605621	4,999847
0,875000	0,609131	4,999847
0,876000	0,581360	4,999847
0,877000	0,600739	4,765472
0,878000	0,611267	4,999847
0,879000	0,616760	3,532257
0,880000	0,615234	4,934387
0,881000	0,620880	4,173279
0,882000	0,613556	4,740753
0,883000	0,615387	4,999847
0,884000	0,609436	4,999847
0,885000	0,618744	4,999847
0,886000	0,608978	4,999847
0,887000	0,616913	4,957581
0,888000	0,603333	4,928741
0,889000	0,609589	2,855988
0,890000	0,608063	2,863007
0,891000	0,610657	4,424133
0,892000	0,612488	4,999847
0,893000	0,612946	4,999847
0,894000	0,616608	4,999847
0,895000	0,610199	4,999847
0,896000	0,614319	4,999847
0,897000	0,606232	4,999847
0,898000	0,618286	4,541779
0,899000	0,608978	3,540649
0,900000	0,620270	3,281250
0,901000	0,610504	3,565979
0,902000	0,617065	4,999847
0,903000	0,614471	4,999847
0,904000	0,622406	4,999847
0,905000	0,621185	4,999847
0,906000	0,622101	4,999847
0,907000	0,625000	4,519958
0,908000	0,617065	4,594421
0,909000	0,621643	3,010101
0,910000	0,619354	3,402405
0,911000	0,623322	4,999847
0,912000	0,602264	4,999847
0,913000	0,619965	4,999847
0,914000	0,608063	4,999847
0,915000	0,628052	4,999847
0,916000	0,618439	4,999847
0,917000	0,631409	4,999847
0,918000	0,625458	4,606628
0,919000	0,628967	3,657990
0,920000	0,630951	4,999847
0,921000	0,629425	3,980560
0,922000	0,635834	4,999847
0,923000	0,628510	4,999847
0,924000	0,636902	4,999847
0,925000	0,623474	4,999847
0,926000	0,639343	4,999847
0,927000	0,623016	4,999847
0,928000	0,641937	4,826508
0,929000	0,623322	2,691040
0,930000	0,641785	3,046570
0,931000	0,629425	4,999847
0,932000	0,639343	4,999847
0,933000	0,633240	4,999847
0,934000	0,633698	4,999847
0,935000	0,633850	4,999847
0,936000	0,632629	4,999847
0,937000	0,641632	4,999847
0,938000	0,633545	4,999847
0,939000	0,648346	3,148193
0,940000	0,629425	4,999847
0,941000	0,651550	3,919525
0,942000	0,630493	4,999847
0,943000	0,658417	4,999847
0,944000	0,633087	4,999847
0,945000	0,667267	4,999847
0,946000	0,656433	4,999847
0,947000	0,683746	4,999847
0,948000	0,681152	4,924011
0,949000	0,687714	2,613525
0,950000	0,688171	4,521942
0,951000	0,679321	4,999847
0,952000	0,689087	4,999847
0,953000	0,671539	4,999847
0,954000	0,691833	4,999847
0,955000	0,668793	4,999847
0,956000	0,697632	4,999847
0,957000	0,670624	4,999847
0,958000	0,702820	4,540405
0,959000	0,681000	3,235931
0,960000	0,700378	4,579468
0,961000	0,687561	4,162292
0,962000	0,666656	4,840546
0,963000	0,663452	4,999847
0,964000	0,659332	4,999847
0,965000	0,665894	4,999847
0,966000	0,654144	4,999847
0,967000	0,671387	4,911194
0,968000	0,647125	4,070740
0,969000	0,675812	2,888184
0,970000	0,644226	2,610474
0,971000	0,681610	4,345551
0,972000	0,643921	4,999847
0,973000	0,681915	4,999847
0,974000	0,657654	4,999847
0,975000	0,688629	4,999847
0,976000	0,679626	4,999847
0,977000	0,687714	4,999847
0,978000	0,660248	4,769745
0,979000	0,644379	3,190460
0,980000	0,677795	4,999847
0,981000	0,670776	3,689270
0,982000	0,696106	4,999847
0,983000	0,674896	4,999847
0,984000	0,727234	4,999847
0,985000	0,690918	4,999847
0,986000	0,735626	4,999847
0,987000	0,701141	4,999847
0,988000	0,734100	4,051819
0,989000	0,707703	2,713318
0,990000	0,723572	2,828979
0,991000	0,704498	4,798126
0,992000	0,699158	4,999847
0,993000	0,705261	4,999847
0,994000	0,698700	4,999847
0,995000	0,722961	4,999847
0,996000	0,699310	4,999847
0,997000	0,733795	4,999847
0,998000	0,696716	4,339447
0,999000	0,743561	3,480682

