LabVIEW Measurement	
Writer_Version	2
Reader_Version	2
Separator	Tab
Decimal_Separator	,
Multi_Headings	Yes
X_Columns	One
Time_Pref	Absolute
Operator	d.nicolai
Date	2023/11/09
Time	16:04:05,6565121999996605588
***End_of_Header***	
	
Channels	2		
Samples	1000	1000	
Date	2023/11/09	2023/11/09	
Time	16:04:50,3365134999998262523	16:04:50,3365134999998262523	
Y_Unit_Label	Volts	Volts	
X_Dimension	Time	Time	
X0	0,0000000000000000E+0	0,0000000000000000E+0	
Delta_X	0,001000	0,001000	
***End_of_Header***			
X_Value	powebox	triggerbox	Comment
0,000000	0,510254	0,798187
0,001000	0,540771	4,952545
0,002000	0,501862	4,999847
0,003000	0,552979	4,999847
0,004000	0,493622	4,999847
0,005000	0,564575	4,999847
0,006000	0,485840	4,999847
0,007000	0,569458	4,999847
0,008000	0,495911	4,843140
0,009000	0,554962	4,277344
0,010000	0,514069	2,134094
0,011000	0,541992	4,280853
0,012000	0,530243	4,065399
0,013000	0,530396	4,999847
0,014000	0,545197	4,999847
0,015000	0,519409	4,999847
0,016000	0,558929	4,999847
0,017000	0,510101	4,999847
0,018000	0,571747	4,238129
0,019000	0,500946	3,764954
0,020000	0,549164	4,555511
0,021000	0,444641	2,994080
0,022000	0,558472	4,999847
0,023000	0,502777	4,999847
0,024000	0,560608	4,999847
0,025000	0,528870	4,999847
0,026000	0,550537	4,999847
0,027000	0,547485	4,999847
0,028000	0,538788	4,999847
0,029000	0,563660	3,644257
0,030000	0,528259	2,335663
0,031000	0,578766	3,822479
0,032000	0,518799	3,647461
0,033000	0,591431	4,999847
0,034000	0,509491	4,999847
0,035000	0,595703	4,999847
0,036000	0,496979	4,999847
0,037000	0,581207	4,999847
0,038000	0,526276	4,999847
0,039000	0,573425	2,910767
0,040000	0,549011	3,724670
0,041000	0,560913	3,039856
0,042000	0,567017	4,999847
0,043000	0,548859	4,999847
0,044000	0,583649	4,999847
0,045000	0,537567	4,999847
0,046000	0,598602	4,999847
0,047000	0,527496	4,999847
0,048000	0,612335	4,999847
0,049000	0,518799	4,025116
0,050000	0,619965	4,337006
0,051000	0,529480	2,996979
0,052000	0,601807	4,226990
0,053000	0,550690	4,999847
0,054000	0,586548	4,999847
0,055000	0,570221	4,999847
0,056000	0,572205	4,999847
0,057000	0,588226	4,999847
0,058000	0,559845	4,999847
0,059000	0,603943	4,145508
0,060000	0,548401	2,438202
0,061000	0,619812	4,508820
0,062000	0,538635	3,903656
0,063000	0,634613	4,999847
0,064000	0,529480	4,999847
0,065000	0,631409	4,999847
0,066000	0,550690	4,999847
0,067000	0,613403	4,999847
0,068000	0,572052	4,999847
0,069000	0,597992	4,321747
0,070000	0,592194	2,027435
0,071000	0,583344	4,512482
0,072000	0,610199	2,362671
0,073000	0,572052	4,999847
0,074000	0,627594	4,999847
0,075000	0,560455	4,999847
0,076000	0,642548	4,999847
0,077000	0,550842	4,999847
0,078000	0,657196	4,999847
0,079000	0,549927	3,729095
0,080000	0,644226	4,083862
0,081000	0,574341	4,417419
0,082000	0,626984	4,999847
0,083000	0,595856	4,999847
0,084000	0,611267	4,999847
0,085000	0,615692	4,999847
0,086000	0,597534	4,999847
0,087000	0,634003	4,999847
0,088000	0,585480	4,999847
0,089000	0,651398	3,794403
0,090000	0,574493	3,560638
0,091000	0,666656	3,763580
0,092000	0,565033	4,866638
0,093000	0,676727	4,999847
0,094000	0,574799	4,999847
0,095000	0,657501	4,999847
0,096000	0,599213	4,999847
0,097000	0,640717	4,999847
0,098000	0,621338	4,833984
0,099000	0,625305	3,689270
0,100000	0,641022	1,796265
0,101000	0,612488	4,384918
0,102000	0,659332	4,582062
0,103000	0,600433	4,999847
0,104000	0,675964	4,999847
0,105000	0,590210	4,999847
0,106000	0,691681	4,999847
0,107000	0,581055	4,999847
0,108000	0,690918	4,999847
0,109000	0,602112	3,957214
0,110000	0,672302	4,151917
0,111000	0,626068	2,938538
0,112000	0,655670	3,973846
0,113000	0,647278	4,999847
0,114000	0,641479	4,999847
0,115000	0,667267	4,999847
0,116000	0,628204	4,999847
0,117000	0,685272	4,999847
0,118000	0,616760	4,999847
0,119000	0,701752	3,224640
0,120000	0,607300	2,429962
0,121000	0,717621	3,130646
0,122000	0,604858	4,792023
0,123000	0,677185	4,999847
0,124000	0,616913	4,999847
0,125000	0,682068	4,999847
0,126000	0,650635	4,999847
0,127000	0,670776	4,999847
0,128000	0,674286	4,999847
0,129000	0,657501	3,637543
0,130000	0,694275	4,315491
0,131000	0,645294	3,925171
0,132000	0,712280	3,896027
0,133000	0,634613	4,999847
0,134000	0,727997	4,999847
0,135000	0,624695	4,999847
0,136000	0,740509	4,999847
0,137000	0,633087	4,999847
0,138000	0,721130	4,999847
0,139000	0,658417	3,220367
0,140000	0,704041	3,928528
0,141000	0,681305	3,269196
0,142000	0,688629	4,999847
0,143000	0,701447	4,999847
0,144000	0,674438	4,999847
0,145000	0,721436	4,999847
0,146000	0,662689	4,999847
0,147000	0,738831	4,999847
0,148000	0,652313	4,999847
0,149000	0,754852	3,495331
0,150000	0,643463	3,450165
0,151000	0,756226	3,953400
0,152000	0,662689	3,781433
0,153000	0,737000	4,999847
0,154000	0,687408	4,999847
0,155000	0,720673	4,999847
0,156000	0,709381	4,999847
0,157000	0,705719	4,999847
0,158000	0,729675	4,390411
0,159000	0,692291	3,122406
0,160000	0,748444	3,929901
0,161000	0,681152	4,131165
0,162000	0,765533	4,183197
0,163000	0,670929	4,999847
0,164000	0,781708	4,999847
0,165000	0,665436	4,999847
0,166000	0,771790	4,999847
0,167000	0,691681	4,999847
0,168000	0,753479	4,999847
0,169000	0,715485	4,239197
0,170000	0,737152	4,095154
0,171000	0,737305	3,765411
0,172000	0,722809	3,250580
0,173000	0,757904	4,999847
0,174000	0,710144	4,999847
0,175000	0,775757	4,999847
0,176000	0,699158	4,999847
0,177000	0,792236	4,999847
0,178000	0,688629	4,266205
0,179000	0,806122	4,260559
0,180000	0,693817	3,343353
0,181000	0,786743	3,085022
0,182000	0,720215	4,700470
0,183000	0,768433	4,999847
0,184000	0,743408	4,999847
0,185000	0,753174	4,999847
0,186000	0,765076	4,999847
0,187000	0,739288	4,999847
0,188000	0,784302	4,999847
0,189000	0,727234	4,252777
0,190000	0,802155	2,253113
0,191000	0,716095	4,490356
0,192000	0,781860	3,255463
0,193000	0,675507	4,999847
0,194000	0,785980	4,999847
0,195000	0,692902	4,999847
0,196000	0,767822	4,999847
0,197000	0,717010	4,999847
0,198000	0,752411	4,468536
0,199000	0,739899	3,710022
0,200000	0,738220	3,730621
0,201000	0,759583	2,776184
0,202000	0,725555	4,992676
0,203000	0,778656	4,999847
0,204000	0,714569	4,999847
0,205000	0,795441	4,999847
0,206000	0,704346	4,999847
0,207000	0,809784	4,999847
0,208000	0,696259	4,568024
0,209000	0,802307	4,598846
0,210000	0,721588	2,622070
0,211000	0,784454	4,696503
0,212000	0,744476	4,082336
0,213000	0,768433	4,999847
0,214000	0,765228	4,999847
0,215000	0,754242	4,999847
0,216000	0,784149	4,999847
0,217000	0,740814	4,999847
0,218000	0,801544	4,999847
0,219000	0,729675	4,284668
0,220000	0,818024	4,004364
0,221000	0,720062	3,523865
0,222000	0,834503	4,999847
0,223000	0,722656	4,999847
0,224000	0,817413	4,999847
0,225000	0,721436	4,999847
0,226000	0,780792	4,999847
0,227000	0,761108	4,999847
0,228000	0,779419	4,999847
0,229000	0,788116	3,904114
0,230000	0,769043	2,908783
0,231000	0,733185	4,999847
0,232000	0,742645	2,910004
0,233000	0,746460	4,999847
0,234000	0,759277	4,999847
0,235000	0,840302	4,999847
0,236000	0,765228	4,999847
0,237000	0,813751	4,999847
0,238000	0,782623	4,359589
0,239000	0,796509	4,114380
0,240000	0,801544	2,439270
0,241000	0,781250	4,521179
0,242000	0,820923	4,667969
0,243000	0,768127	4,999847
0,244000	0,838623	4,999847
0,245000	0,756531	4,999847
0,246000	0,855560	4,999847
0,247000	0,746002	4,999847
0,248000	0,859528	4,999847
0,249000	0,760956	4,025726
0,250000	0,841217	4,434967
0,251000	0,784149	3,719940
0,252000	0,824738	4,017944
0,253000	0,805206	4,999847
0,254000	0,808563	4,999847
0,255000	0,825195	4,999847
0,256000	0,793915	4,999847
0,257000	0,844421	4,999847
0,258000	0,780487	4,786987
0,259000	0,861816	3,693848
0,260000	0,767822	2,553101
0,261000	0,876160	4,192200
0,262000	0,758209	4,751587
0,263000	0,866089	4,999847
0,264000	0,781860	4,999847
0,265000	0,847168	4,999847
0,266000	0,804443	4,999847
0,267000	0,830231	4,999847
0,268000	0,825348	4,999847
0,269000	0,814362	4,659882
0,270000	0,845337	1,959839
0,271000	0,800018	4,999847
0,272000	0,863800	2,920990
0,273000	0,785980	4,999847
0,274000	0,878601	4,999847
0,275000	0,774078	4,999847
0,276000	0,888214	4,999847
0,277000	0,762634	4,999847
0,278000	0,702667	4,663391
0,279000	0,674896	3,857574
0,280000	0,662384	2,407990
0,281000	0,656891	4,533081
0,282000	0,654144	4,308929
0,283000	0,652771	4,999847
0,284000	0,652008	4,999847
0,285000	0,651550	4,999847
0,286000	0,651093	4,999847
0,287000	0,651093	4,999847
0,288000	0,651398	4,999847
0,289000	0,650787	4,283447
0,290000	0,650940	2,144318
0,291000	0,651093	4,745941
0,292000	0,651093	3,194580
0,293000	0,650940	4,999847
0,294000	0,651093	4,999847
0,295000	0,650482	4,999847
0,296000	0,650330	4,999847
0,297000	0,650787	4,999847
0,298000	0,560760	4,977417
0,299000	0,471954	3,466187
0,300000	0,436859	4,141235
0,301000	0,412903	4,649200
0,302000	0,413208	4,999847
0,303000	0,399475	4,999847
0,304000	0,410309	4,999847
0,305000	0,395660	4,999847
0,306000	0,412445	4,999847
0,307000	0,396423	4,999847
0,308000	0,410767	4,999847
0,309000	0,400696	3,710785
0,310000	0,409393	3,333435
0,311000	0,405426	4,999847
0,312000	0,406647	3,802338
0,313000	0,409088	4,999847
0,314000	0,404968	4,999847
0,315000	0,413208	4,999847
0,316000	0,403595	4,999847
0,317000	0,417480	4,999847
0,318000	0,402069	4,378662
0,319000	0,422516	3,894958
0,320000	0,401917	3,217621
0,321000	0,425110	3,780975
0,322000	0,405121	4,853210
0,323000	0,422668	4,999847
0,324000	0,411224	4,999847
0,325000	0,418854	4,999847
0,326000	0,416107	4,999847
0,327000	0,401917	4,999847
0,328000	0,391388	4,999847
0,329000	0,399780	3,907013
0,330000	0,420380	3,927612
0,331000	0,409241	3,585510
0,332000	0,430756	3,313141
0,333000	0,408936	4,999847
0,334000	0,436859	4,999847
0,335000	0,408020	4,999847
0,336000	0,437012	4,999847
0,337000	0,415344	4,999847
0,338000	0,433044	4,999847
0,339000	0,421906	3,599091
0,340000	0,429382	4,036407
0,341000	0,429535	3,781891
0,342000	0,426483	4,742584
0,343000	0,435638	4,999847
0,344000	0,423737	4,999847
0,345000	0,443573	4,999847
0,346000	0,423584	4,999847
0,347000	0,455322	4,999847
0,348000	0,423279	4,999847
0,349000	0,464630	4,172058
0,350000	0,428925	2,762451
0,351000	0,468597	4,990540
0,352000	0,444489	3,028870
0,353000	0,462189	4,999847
0,354000	0,452423	4,999847
0,355000	0,457153	4,999847
0,356000	0,460358	4,999847
0,357000	0,452881	4,999847
0,358000	0,467987	4,999847
0,359000	0,448456	3,698883
0,360000	0,475006	3,447571
0,361000	0,444794	3,862610
0,362000	0,482025	4,938965
0,363000	0,440979	4,999847
0,364000	0,486298	4,999847
0,365000	0,445862	4,999847
0,366000	0,479279	4,999847
0,367000	0,455933	4,999847
0,368000	0,472260	4,999847
0,369000	0,465851	4,273376
0,370000	0,466614	2,958832
0,371000	0,474701	4,010925
0,372000	0,460968	3,770142
0,373000	0,482941	4,999847
0,374000	0,455933	4,999847
0,375000	0,490723	4,999847
0,376000	0,451355	4,999847
0,377000	0,498505	4,999847
0,378000	0,447083	4,999847
0,379000	0,497894	3,649750
0,380000	0,457764	3,364410
0,381000	0,489502	3,048859
0,382000	0,468903	4,199371
0,383000	0,481873	4,999847
0,384000	0,479279	4,999847
0,385000	0,475006	4,999847
0,386000	0,489197	4,999847
0,387000	0,468903	4,999847
0,388000	0,498657	4,999847
0,389000	0,463104	3,444672
0,390000	0,507507	3,010254
0,391000	0,457916	3,837891
0,392000	0,515747	3,792267
0,393000	0,457306	4,999847
0,394000	0,509186	4,999847
0,395000	0,470734	4,999847
0,396000	0,499878	4,999847
0,397000	0,482941	4,999847
0,398000	0,491486	4,999847
0,399000	0,494690	3,341675
0,400000	0,483551	3,807831
0,401000	0,505676	3,200073
0,402000	0,476379	4,999847
0,403000	0,515442	4,999847
0,404000	0,470428	4,999847
0,405000	0,525055	4,999847
0,406000	0,464325	4,999847
0,407000	0,531006	4,999847
0,408000	0,470886	4,999847
0,409000	0,519714	3,604126
0,410000	0,484619	4,401703
0,411000	0,509796	3,861847
0,412000	0,498047	3,540039
0,413000	0,499878	4,999847
0,414000	0,510406	4,999847
0,415000	0,491791	4,999847
0,416000	0,521545	4,999847
0,417000	0,484314	4,999847
0,418000	0,532837	4,999847
0,419000	0,477142	3,926544
0,420000	0,542755	3,536530
0,421000	0,471039	3,891602
0,422000	0,542755	4,535675
0,423000	0,484467	4,999847
0,424000	0,530090	4,999847
0,425000	0,500031	4,999847
0,426000	0,519257	4,999847
0,427000	0,513763	4,999847
0,428000	0,509338	4,657745
0,429000	0,527496	4,978943
0,430000	0,470734	3,353729
0,431000	0,521851	4,628143
0,432000	0,483856	3,015747
0,433000	0,546875	4,903564
0,434000	0,482788	4,999847
0,435000	0,560760	4,999847
0,436000	0,482483	4,999847
0,437000	0,553131	4,999847
0,438000	0,499878	4,543152
0,439000	0,540314	3,208618
0,440000	0,515747	4,464264
0,441000	0,528412	3,612213
0,442000	0,530853	4,638824
0,443000	0,518036	4,999847
0,444000	0,544739	4,999847
0,445000	0,508575	4,999847
0,446000	0,557861	4,999847
0,447000	0,499420	4,999847
0,448000	0,569916	4,883881
0,449000	0,491943	3,504028
0,450000	0,579071	4,327698
0,451000	0,498047	3,417816
0,452000	0,563812	4,353638
0,453000	0,516357	4,522552
0,454000	0,550232	4,999847
0,455000	0,533447	4,999847
0,456000	0,537872	4,999847
0,457000	0,549011	4,999847
0,458000	0,526733	4,790039
0,459000	0,563507	4,106445
0,460000	0,516663	2,322845
0,461000	0,576477	4,125061
0,462000	0,507660	4,999847
0,463000	0,589294	4,999847
0,464000	0,499268	4,999847
0,465000	0,590210	4,999847
0,466000	0,515594	4,999847
0,467000	0,574493	4,999847
0,468000	0,534210	4,999847
0,469000	0,559998	4,600067
0,470000	0,551910	4,170685
0,471000	0,547485	4,482422
0,472000	0,567780	3,922272
0,473000	0,535736	4,999847
0,474000	0,582886	4,999847
0,475000	0,525513	4,999847
0,476000	0,597076	4,999847
0,477000	0,516205	4,999847
0,478000	0,609894	4,669037
0,479000	0,512238	4,013214
0,480000	0,600739	2,558289
0,481000	0,533905	4,999847
0,482000	0,584869	4,999847
0,483000	0,552979	4,999847
0,484000	0,570679	4,999847
0,485000	0,571442	4,999847
0,486000	0,557556	4,999847
0,487000	0,588531	4,999847
0,488000	0,546112	4,999847
0,489000	0,604095	4,082642
0,490000	0,535583	3,202972
0,491000	0,618134	4,349976
0,492000	0,526733	3,789978
0,493000	0,629730	4,656219
0,494000	0,532074	4,999847
0,495000	0,612640	4,999847
0,496000	0,554047	4,999847
0,497000	0,596161	4,999847
0,498000	0,574036	4,358215
0,499000	0,581512	4,041290
0,500000	0,592651	2,998047
0,501000	0,568848	4,183502
0,502000	0,609894	4,999847
0,503000	0,557098	4,999847
0,504000	0,625610	4,999847
0,505000	0,547028	4,999847
0,506000	0,640564	4,999847
0,507000	0,538330	4,999847
0,508000	0,642395	4,999847
0,509000	0,554047	4,623260
0,510000	0,624542	4,032135
0,511000	0,576630	4,350281
0,512000	0,608368	3,535767
0,513000	0,596466	4,703827
0,514000	0,593567	4,999847
0,515000	0,615234	4,999847
0,516000	0,581207	4,999847
0,517000	0,633087	4,999847
0,518000	0,569916	4,730377
0,519000	0,648499	4,267120
0,520000	0,559845	2,653809
0,521000	0,663757	4,103394
0,522000	0,553741	4,850311
0,523000	0,655518	4,999847
0,524000	0,578003	4,999847
0,525000	0,637817	4,999847
0,526000	0,600891	4,999847
0,527000	0,621948	4,999847
0,528000	0,621033	4,999847
0,529000	0,608063	3,537292
0,530000	0,639954	3,248901
0,531000	0,595398	4,999847
0,532000	0,636902	3,710327
0,533000	0,560455	4,999847
0,534000	0,662079	4,999847
0,535000	0,570068	4,999847
0,536000	0,685883	4,999847
0,537000	0,578613	4,999847
0,538000	0,669098	4,999847
0,539000	0,603485	3,238220
0,540000	0,652161	4,799500
0,541000	0,626221	3,580322
0,542000	0,636444	4,558563
0,543000	0,646362	4,999847
0,544000	0,622711	4,999847
0,545000	0,665283	4,999847
0,546000	0,610809	4,999847
0,547000	0,682678	4,999847
0,548000	0,600433	4,999847
0,549000	0,698090	4,763947
0,550000	0,590820	3,518677
0,551000	0,703735	4,836121
0,552000	0,606842	3,659058
0,553000	0,684357	4,999847
0,554000	0,630798	4,999847
0,555000	0,667572	4,999847
0,556000	0,653076	4,999847
0,557000	0,652771	4,999847
0,558000	0,673523	4,669189
0,559000	0,639343	4,044647
0,560000	0,691833	2,805328
0,561000	0,628052	4,999847
0,562000	0,708771	4,129028
0,563000	0,617523	4,999847
0,564000	0,724487	4,999847
0,565000	0,609741	4,999847
0,566000	0,718384	4,999847
0,567000	0,634918	4,999847
0,568000	0,699463	4,999847
0,569000	0,659027	4,639587
0,570000	0,683594	2,983093
0,571000	0,681000	4,234772
0,572000	0,669250	3,488922
0,573000	0,700531	4,514465
0,574000	0,656128	4,999847
0,575000	0,718842	4,999847
0,576000	0,644989	4,999847
0,577000	0,735168	4,999847
0,578000	0,635681	4,999847
0,579000	0,750885	2,951050
0,580000	0,638275	3,877411
0,581000	0,733490	4,538574
0,582000	0,663757	4,293518
0,583000	0,715637	4,999847
0,584000	0,686646	4,999847
0,585000	0,699921	4,999847
0,586000	0,708618	4,999847
0,587000	0,686188	4,999847
0,588000	0,727997	4,999847
0,589000	0,674133	3,865051
0,590000	0,745697	4,045105
0,591000	0,663147	4,663696
0,592000	0,761566	3,551941
0,593000	0,653229	4,999847
0,594000	0,767975	4,999847
0,595000	0,666656	4,999847
0,596000	0,749207	4,999847
0,597000	0,692902	4,999847
0,598000	0,732117	4,999847
0,599000	0,715179	3,106537
0,600000	0,717010	4,614563
0,601000	0,736084	3,368378
0,602000	0,703735	4,999847
0,603000	0,753784	4,999847
0,604000	0,691528	4,999847
0,605000	0,771942	4,999847
0,606000	0,681152	4,999847
0,607000	0,788422	4,999847
0,608000	0,671997	4,984131
0,609000	0,784302	3,633423
0,610000	0,696869	4,870605
0,611000	0,765381	3,338776
0,612000	0,720978	3,058472
0,613000	0,748749	4,999847
0,614000	0,743103	4,999847
0,615000	0,733948	4,999847
0,616000	0,763550	4,999847
0,617000	0,720978	4,999847
0,618000	0,782166	4,955902
0,619000	0,709381	3,423004
0,620000	0,798950	3,786926
0,621000	0,699158	3,035278
0,622000	0,814514	4,149017
0,623000	0,699310	4,999847
0,624000	0,799408	4,999847
0,625000	0,725403	4,999847
0,626000	0,780945	4,999847
0,627000	0,749207	4,999847
0,628000	0,765076	4,999847
0,629000	0,770569	4,763184
0,630000	0,750732	4,771576
0,631000	0,790253	3,418427
0,632000	0,705872	3,526001
0,633000	0,773010	4,999847
0,634000	0,695343	4,999847
0,635000	0,765839	4,999847
0,636000	0,675964	4,999847
0,637000	0,793915	4,999847
0,638000	0,695953	4,961548
0,639000	0,779266	2,625732
0,640000	0,722351	4,798737
0,641000	0,763550	3,704224
0,642000	0,744781	4,999847
0,643000	0,749359	4,999847
0,644000	0,765991	4,999847
0,645000	0,736847	4,999847
0,646000	0,785217	4,999847
0,647000	0,731201	4,999847
0,648000	0,802460	4,999847
0,649000	0,713501	4,966125
0,650000	0,815125	3,430023
0,651000	0,704193	3,530731
0,652000	0,814056	3,339539
0,653000	0,725403	4,999847
0,654000	0,796356	4,999847
0,655000	0,748444	4,999847
0,656000	0,779572	4,999847
0,657000	0,769501	4,999847
0,658000	0,764771	4,701691
0,659000	0,789032	3,513184
0,660000	0,751648	3,535767
0,661000	0,806732	2,576904
0,662000	0,740509	4,999847
0,663000	0,824280	4,999847
0,664000	0,729980	4,999847
0,665000	0,840607	4,999847
0,666000	0,727234	4,999847
0,667000	0,828857	4,999847
0,668000	0,727234	4,477539
0,669000	0,740051	4,016266
0,670000	0,745544	2,738953
0,671000	0,747986	3,887329
0,672000	0,803070	4,638672
0,673000	0,792542	4,999847
0,674000	0,808105	4,999847
0,675000	0,771179	4,999847
0,676000	0,823212	4,999847
0,677000	0,756989	4,999847
0,678000	0,840454	4,481812
0,679000	0,746002	3,417816
0,680000	0,856323	2,593536
0,681000	0,741272	3,627930
0,682000	0,845642	4,999847
0,683000	0,766144	4,999847
0,684000	0,828400	4,999847
0,685000	0,788116	4,999847
0,686000	0,812073	4,999847
0,687000	0,808105	4,999847
0,688000	0,797119	4,999847
0,689000	0,828400	4,859467
0,690000	0,783081	3,435822
0,691000	0,847015	2,505646
0,692000	0,769958	4,561462
0,693000	0,863495	4,230042
0,694000	0,758667	4,999847
0,695000	0,874481	4,999847
0,696000	0,764771	4,999847
0,697000	0,854034	4,999847
0,698000	0,787811	4,999847
0,699000	0,836029	3,796387
0,700000	0,809784	2,916412
0,701000	0,820007	4,512177
0,702000	0,830078	4,869537
0,703000	0,804901	4,999847
0,704000	0,849152	4,999847
0,705000	0,790710	4,999847
0,706000	0,866852	4,999847
0,707000	0,777435	4,999847
0,708000	0,880280	4,943542
0,709000	0,766144	4,537964
0,710000	0,876007	2,876740
0,711000	0,782318	4,999847
0,712000	0,855560	3,509674
0,713000	0,805359	4,999847
0,714000	0,838013	4,999847
0,715000	0,737915	4,999847
0,716000	0,691223	4,999847
0,717000	0,669861	4,999847
0,718000	0,659943	4,325562
0,719000	0,655212	4,020844
0,720000	0,653076	4,351501
0,721000	0,652313	3,811340
0,722000	0,651703	4,999847
0,723000	0,651550	4,999847
0,724000	0,651245	4,999847
0,725000	0,651093	4,999847
0,726000	0,651093	4,999847
0,727000	0,650787	4,999847
0,728000	0,650787	4,999847
0,729000	0,650787	3,892670
0,730000	0,650482	4,052582
0,731000	0,650787	4,439697
0,732000	0,650787	3,823090
0,733000	0,650635	4,944916
0,734000	0,650482	4,999847
0,735000	0,650635	4,999847
0,736000	0,572662	4,999847
0,737000	0,449219	4,999847
0,738000	0,394897	4,804687
0,739000	0,388336	3,434143
0,740000	0,400085	4,174652
0,741000	0,395660	3,881073
0,742000	0,407562	4,312592
0,743000	0,396423	4,999847
0,744000	0,411530	4,999847
0,745000	0,395660	4,999847
0,746000	0,413971	4,999847
0,747000	0,398560	4,999847
0,748000	0,411835	4,640198
0,749000	0,402832	4,095154
0,750000	0,410004	3,146057
0,751000	0,407562	3,751831
0,752000	0,407867	2,982941
0,753000	0,411224	4,308777
0,754000	0,405884	4,999847
0,755000	0,416107	4,999847
0,756000	0,404663	4,999847
0,757000	0,420380	4,999847
0,758000	0,402679	4,999847
0,759000	0,424652	3,656769
0,760000	0,401306	3,743134
0,761000	0,424957	3,726959
0,762000	0,406952	4,531860
0,763000	0,422211	4,999847
0,764000	0,412750	4,999847
0,765000	0,418854	4,999847
0,766000	0,418091	4,999847
0,767000	0,416107	4,999847
0,768000	0,423889	4,951782
0,769000	0,413818	3,803864
0,770000	0,428467	2,781677
0,771000	0,411072	3,806763
0,772000	0,433655	3,300476
0,773000	0,408173	4,999847
0,774000	0,438232	4,999847
0,775000	0,409393	4,999847
0,776000	0,435486	4,999847
0,777000	0,416565	4,999847
0,778000	0,431519	4,999847
0,779000	0,423584	4,058228
0,780000	0,427856	3,177338
0,781000	0,429840	4,070282
0,782000	0,424194	4,999847
0,783000	0,436707	4,999847
0,784000	0,420837	4,999847
0,785000	0,442505	4,999847
0,786000	0,417938	4,999847
0,787000	0,448914	4,999847
0,788000	0,415955	4,999847
0,789000	0,453033	3,967438
0,790000	0,419769	3,164062
0,791000	0,447998	3,894196
0,792000	0,429077	3,866577
0,793000	0,443420	4,812317
0,794000	0,438995	4,999847
0,795000	0,446930	4,999847
0,796000	0,454102	4,999847
0,797000	0,441895	4,999847
0,798000	0,455322	4,999847
0,799000	0,440063	3,479919
0,800000	0,477600	3,504639
0,801000	0,443573	4,276428
0,802000	0,484924	4,939880
0,803000	0,440216	4,999847
0,804000	0,484467	4,999847
0,805000	0,448914	4,999847
0,806000	0,477448	4,999847
0,807000	0,458527	4,999847
0,808000	0,470734	4,999847
0,809000	0,468445	4,006500
0,810000	0,465240	2,659454
0,811000	0,477295	4,999847
0,812000	0,459900	3,784637
0,813000	0,485535	4,999847
0,814000	0,454865	4,999847
0,815000	0,493011	4,999847
0,816000	0,449982	4,999847
0,817000	0,500946	4,999847
0,818000	0,449371	4,879456
0,819000	0,495605	2,975616
0,820000	0,461273	2,774963
0,821000	0,487518	4,459839
0,822000	0,472107	4,896851
0,823000	0,480194	4,999847
0,824000	0,482178	4,999847
0,825000	0,473785	4,999847
0,826000	0,492401	4,999847
0,827000	0,467834	4,999847
0,828000	0,501099	4,920044
0,829000	0,461731	3,873138
0,830000	0,510406	3,582916
0,831000	0,456696	4,815216
0,832000	0,517120	3,852692
0,833000	0,461426	4,999847
0,834000	0,506287	4,999847
0,835000	0,474243	4,999847
0,836000	0,498199	4,999847
0,837000	0,486755	4,999847
0,838000	0,489502	4,999847
0,839000	0,483093	3,524323
0,840000	0,443115	3,323669
0,841000	0,490723	2,947388
0,842000	0,467072	4,999847
0,843000	0,514832	4,999847
0,844000	0,466919	4,999847
0,845000	0,526886	4,999847
0,846000	0,462494	4,999847
0,847000	0,528412	4,999847
0,848000	0,474854	4,999847
0,849000	0,517578	4,340210
0,850000	0,488586	2,634583
0,851000	0,507660	3,881683
0,852000	0,501862	2,948303
0,853000	0,498352	4,999847
0,854000	0,513916	4,999847
0,855000	0,490417	4,999847
0,856000	0,525665	4,999847
0,857000	0,482941	4,999847
0,858000	0,536041	4,728394
0,859000	0,475464	3,019409
0,860000	0,546265	4,127045
0,861000	0,473175	3,587036
0,862000	0,539246	4,999847
0,863000	0,489197	4,999847
0,864000	0,527649	4,999847
0,865000	0,504150	4,999847
0,866000	0,517120	4,999847
0,867000	0,517883	4,999847
0,868000	0,506592	4,999847
0,869000	0,530853	4,584045
0,870000	0,498047	3,763733
0,871000	0,543365	3,827057
0,872000	0,489807	4,267426
0,873000	0,554352	4,538727
0,874000	0,482483	4,999847
0,875000	0,563812	4,999847
0,876000	0,487213	4,999847
0,877000	0,550232	4,999847
0,878000	0,503845	4,384460
0,879000	0,537262	4,098511
0,880000	0,520477	4,653931
0,881000	0,525970	3,534546
0,882000	0,535278	4,901733
0,883000	0,515594	4,999847
0,884000	0,549469	4,999847
0,885000	0,506134	4,999847
0,886000	0,562134	4,999847
0,887000	0,497589	4,999847
0,888000	0,573578	4,999847
0,889000	0,490112	4,872894
0,890000	0,575714	3,221283
0,891000	0,503540	4,999847
0,892000	0,560608	4,241943
0,893000	0,521393	4,999847
0,894000	0,546875	4,999847
0,895000	0,537872	4,999847
0,896000	0,535431	4,999847
0,897000	0,553436	4,999847
0,898000	0,524139	3,921051
0,899000	0,567322	3,927307
0,900000	0,514526	3,950500
0,901000	0,581055	2,883911
0,902000	0,505371	4,999847
0,903000	0,593262	4,999847
0,904000	0,500183	4,999847
0,905000	0,586243	4,999847
0,906000	0,520477	4,999847
0,907000	0,570679	4,999847
0,908000	0,539551	4,999847
0,909000	0,557098	3,906708
0,910000	0,556641	2,929382
0,911000	0,544586	4,010162
0,912000	0,572510	3,847198
0,913000	0,533447	4,700623
0,914000	0,587463	4,999847
0,915000	0,523682	4,999847
0,916000	0,601044	4,999847
0,917000	0,514374	4,999847
0,918000	0,613556	4,999847
0,919000	0,518646	3,980713
0,920000	0,597076	2,698364
0,921000	0,539703	4,656525
0,922000	0,581665	4,999847
0,923000	0,558777	4,999847
0,924000	0,567322	4,999847
0,925000	0,576935	4,999847
0,926000	0,554657	4,999847
0,927000	0,593262	4,999847
0,928000	0,543518	4,999847
0,929000	0,608368	4,999847
0,930000	0,533447	3,399048
0,931000	0,622406	4,328308
0,932000	0,524597	3,843994
0,933000	0,626221	4,999847
0,934000	0,538635	4,999847
0,935000	0,608673	4,999847
0,936000	0,560608	4,999847
0,937000	0,592499	4,999847
0,938000	0,579987	4,272766
0,939000	0,578918	4,199219
0,940000	0,598450	4,281311
0,941000	0,566101	3,325043
0,942000	0,573578	4,498901
0,943000	0,511017	4,999847
0,944000	0,610352	4,999847
0,945000	0,536346	4,999847
0,946000	0,640564	4,999847
0,947000	0,535736	4,999847
0,948000	0,637512	4,999847
0,949000	0,560455	4,604492
0,950000	0,620422	3,567047
0,951000	0,582733	3,917236
0,952000	0,605316	4,078827
0,953000	0,602722	4,875336
0,954000	0,590668	4,999847
0,955000	0,621185	4,999847
0,956000	0,578766	4,999847
0,957000	0,637970	4,999847
0,958000	0,567627	4,174805
0,959000	0,653839	4,681091
0,960000	0,558014	3,881531
0,961000	0,668182	3,715057
0,962000	0,561371	4,999847
0,963000	0,651550	4,999847
0,964000	0,585022	4,999847
0,965000	0,634003	4,999847
0,966000	0,607147	4,999847
0,967000	0,619202	4,999847
0,968000	0,627594	4,805450
0,969000	0,605316	4,527283
0,970000	0,645905	2,649231
0,971000	0,593262	4,367981
0,972000	0,662994	4,186859
0,973000	0,582275	4,221649
0,974000	0,678406	4,999847
0,975000	0,573273	4,999847
0,976000	0,684204	4,999847
0,977000	0,587006	4,999847
0,978000	0,665588	4,861603
0,979000	0,610809	3,136749
0,980000	0,647888	3,130341
0,981000	0,632477	2,517700
0,982000	0,633240	4,999847
0,983000	0,652313	4,999847
0,984000	0,620270	4,999847
0,985000	0,670929	4,999847
0,986000	0,609131	4,999847
0,987000	0,688171	4,999847
0,988000	0,598602	4,999847
0,989000	0,703430	4,338379
0,990000	0,590057	2,881927
0,991000	0,699310	4,679565
0,992000	0,614624	3,765411
0,993000	0,680542	4,999847
0,994000	0,637970	4,999847
0,995000	0,664062	4,999847
0,996000	0,659332	4,999847
0,997000	0,649719	4,999847
0,998000	0,679626	4,342041
0,999000	0,636902	4,083252

