LabVIEW Measurement	
Writer_Version	2
Reader_Version	2
Separator	Tab
Decimal_Separator	,
Multi_Headings	Yes
X_Columns	One
Time_Pref	Absolute
Operator	d.nicolai
Date	2023/11/09
Time	16:04:05,6565121999996605588
***End_of_Header***	
	
Channels	2		
Samples	1000	1000	
Date	2023/11/09	2023/11/09	
Time	16:04:51,4075126999997894893	16:04:51,4075126999997894893	
Y_Unit_Label	Volts	Volts	
X_Dimension	Time	Time	
X0	0,0000000000000000E+0	0,0000000000000000E+0	
Delta_X	0,001000	0,001000	
***End_of_Header***			
X_Value	powebox	triggerbox	Comment
0,000000	0,701599	0,956268
0,001000	0,784149	4,208221
0,002000	0,689240	3,459320
0,003000	0,798035	4,999847
0,004000	0,687561	4,999847
0,005000	0,787811	4,999847
0,006000	0,720673	4,999847
0,007000	0,769806	4,999847
0,008000	0,740662	4,999847
0,009000	0,753784	3,940887
0,010000	0,757141	3,561249
0,011000	0,739441	4,289856
0,012000	0,775299	4,295807
0,013000	0,726776	4,999847
0,014000	0,791321	4,999847
0,015000	0,715179	4,999847
0,016000	0,807495	4,999847
0,017000	0,705719	4,999847
0,018000	0,818939	4,999847
0,019000	0,714111	4,018555
0,020000	0,800323	2,272797
0,021000	0,738220	4,248199
0,022000	0,782623	4,247131
0,023000	0,759583	4,999847
0,024000	0,766907	4,999847
0,025000	0,779572	4,999847
0,026000	0,753326	4,999847
0,027000	0,797577	4,999847
0,028000	0,741272	4,987793
0,029000	0,814667	3,104248
0,030000	0,730438	2,059021
0,031000	0,831604	3,483124
0,032000	0,721436	4,999847
0,033000	0,832977	4,999847
0,034000	0,740204	4,999847
0,035000	0,815277	4,999847
0,036000	0,727692	4,999847
0,037000	0,739594	4,999847
0,038000	0,744629	4,999847
0,039000	0,789795	3,567657
0,040000	0,803375	3,505859
0,041000	0,795746	3,108673
0,042000	0,781097	4,327850
0,043000	0,811005	4,999847
0,044000	0,765839	4,999847
0,045000	0,828857	4,999847
0,046000	0,753632	4,999847
0,047000	0,845642	4,999847
0,048000	0,743103	4,999847
0,049000	0,858459	3,926086
0,050000	0,749512	1,332855
0,051000	0,840149	4,999847
0,052000	0,773468	4,999847
0,053000	0,823059	4,999847
0,054000	0,794983	4,999847
0,055000	0,807343	4,999847
0,056000	0,815125	4,999847
0,057000	0,792694	4,999847
0,058000	0,834808	4,999847
0,059000	0,778961	4,104156
0,060000	0,852509	4,533386
0,061000	0,766449	3,723145
0,062000	0,868530	3,934937
0,063000	0,755463	4,689484
0,064000	0,867157	4,999847
0,065000	0,772400	4,999847
0,066000	0,847778	4,999847
0,067000	0,794830	4,999847
0,068000	0,830383	4,239044
0,069000	0,815735	3,096313
0,070000	0,814514	3,797455
0,071000	0,836182	3,275299
0,072000	0,799713	4,999847
0,073000	0,854797	4,999847
0,074000	0,786133	4,999847
0,075000	0,871277	4,999847
0,076000	0,765076	4,999847
0,077000	0,868835	4,999847
0,078000	0,759888	4,851074
0,079000	0,866547	4,837494
0,080000	0,788727	4,103241
0,081000	0,848694	4,676056
0,082000	0,742645	4,931030
0,083000	0,692444	4,999847
0,084000	0,669861	4,999847
0,085000	0,659332	4,999847
0,086000	0,654297	4,999847
0,087000	0,652161	4,999847
0,088000	0,651245	4,208679
0,089000	0,650635	3,646393
0,090000	0,650024	4,728546
0,091000	0,650177	2,923889
0,092000	0,649872	4,999847
0,093000	0,649872	4,999847
0,094000	0,649719	4,999847
0,095000	0,650024	4,999847
0,096000	0,649719	4,999847
0,097000	0,649719	4,999847
0,098000	0,649567	4,999847
0,099000	0,649567	3,411865
0,100000	0,649719	3,791656
0,101000	0,649567	4,245605
0,102000	0,649414	4,971161
0,103000	0,610809	4,999847
0,104000	0,503693	4,999847
0,105000	0,441284	4,999847
0,106000	0,424347	4,999847
0,107000	0,408783	4,999847
0,108000	0,406952	4,530029
0,109000	0,404663	3,782654
0,110000	0,401917	3,070831
0,111000	0,406647	4,012451
0,112000	0,399933	4,999847
0,113000	0,409698	4,999847
0,114000	0,398407	4,999847
0,115000	0,413361	4,999847
0,116000	0,397034	4,999847
0,117000	0,417023	4,999847
0,118000	0,398407	4,999847
0,119000	0,414734	4,634094
0,120000	0,403595	3,677216
0,121000	0,412292	2,932739
0,122000	0,408020	4,790192
0,123000	0,409851	4,999847
0,124000	0,412903	4,999847
0,125000	0,408325	4,999847
0,126000	0,417786	4,999847
0,127000	0,406342	4,999847
0,128000	0,422363	4,702911
0,129000	0,404510	3,988647
0,130000	0,426483	3,502045
0,131000	0,402985	3,135834
0,132000	0,428772	4,744263
0,133000	0,407104	4,999847
0,134000	0,425110	4,999847
0,135000	0,413208	4,999847
0,136000	0,421600	4,999847
0,137000	0,418549	4,999847
0,138000	0,418091	4,671783
0,139000	0,424500	4,989471
0,140000	0,415955	2,527161
0,141000	0,430603	4,350128
0,142000	0,413666	3,574524
0,143000	0,435791	4,999847
0,144000	0,411072	4,999847
0,145000	0,440674	4,999847
0,146000	0,409546	4,999847
0,147000	0,440216	4,999847
0,148000	0,417328	4,818878
0,149000	0,435486	3,741455
0,150000	0,424652	2,496033
0,151000	0,431976	4,999847
0,152000	0,431824	4,999847
0,153000	0,428314	4,999847
0,154000	0,438385	4,999847
0,155000	0,424347	4,999847
0,156000	0,444794	4,999847
0,157000	0,421143	4,999847
0,158000	0,451660	4,999847
0,159000	0,418549	3,705444
0,160000	0,457611	2,245026
0,161000	0,420227	4,959412
0,162000	0,452728	4,360199
0,163000	0,429687	4,999847
0,164000	0,448151	4,999847
0,165000	0,439911	4,999847
0,166000	0,460968	4,999847
0,167000	0,464630	4,999847
0,168000	0,455627	4,999847
0,169000	0,472260	3,208771
0,170000	0,450897	3,161163
0,171000	0,479736	4,103241
0,172000	0,446777	4,999847
0,173000	0,486908	4,999847
0,174000	0,442657	4,999847
0,175000	0,490417	4,999847
0,176000	0,448914	4,999847
0,177000	0,483246	4,999847
0,178000	0,459290	4,999847
0,179000	0,435638	4,378204
0,180000	0,451202	2,272644
0,181000	0,461426	4,241486
0,182000	0,474243	4,299927
0,183000	0,461884	4,999847
0,184000	0,486298	4,999847
0,185000	0,457764	4,999847
0,186000	0,495148	4,999847
0,187000	0,453339	4,999847
0,188000	0,503540	4,999847
0,189000	0,448456	3,621063
0,190000	0,501556	2,545624
0,191000	0,459900	4,611359
0,192000	0,492859	4,881592
0,193000	0,472260	4,999847
0,194000	0,485077	4,999847
0,195000	0,483398	4,999847
0,196000	0,478058	4,999847
0,197000	0,493469	4,999847
0,198000	0,471344	4,999847
0,199000	0,503693	3,698273
0,200000	0,465546	2,833099
0,201000	0,512848	4,180298
0,202000	0,459747	3,892212
0,203000	0,521088	4,999847
0,204000	0,460358	4,999847
0,205000	0,513153	4,999847
0,206000	0,474091	4,999847
0,207000	0,503540	4,999847
0,208000	0,486603	4,999847
0,209000	0,494690	3,751526
0,210000	0,498352	3,035889
0,211000	0,486755	4,276276
0,212000	0,510101	4,999847
0,213000	0,479126	4,999847
0,214000	0,520325	4,999847
0,215000	0,472565	4,999847
0,216000	0,529938	4,999847
0,217000	0,466614	4,999847
0,218000	0,535126	4,999847
0,219000	0,473785	4,228210
0,220000	0,524139	2,556915
0,221000	0,488739	4,909058
0,222000	0,513000	4,042053
0,223000	0,502014	4,999847
0,224000	0,503540	4,999847
0,225000	0,514679	4,999847
0,226000	0,494537	4,999847
0,227000	0,526581	4,999847
0,228000	0,486755	4,999847
0,229000	0,537109	3,132629
0,230000	0,479431	3,631897
0,231000	0,548096	2,911987
0,232000	0,472870	4,999847
0,233000	0,546570	4,999847
0,234000	0,487823	4,999847
0,235000	0,534210	4,999847
0,236000	0,498199	4,999847
0,237000	0,498352	4,999847
0,238000	0,506897	4,825592
0,239000	0,507202	3,783417
0,240000	0,529175	4,046936
0,241000	0,502014	3,930359
0,242000	0,543671	4,123688
0,243000	0,494232	4,999847
0,244000	0,555420	4,999847
0,245000	0,486450	4,999847
0,246000	0,566711	4,999847
0,247000	0,485535	4,999847
0,248000	0,557404	4,710388
0,249000	0,503387	3,391571
0,250000	0,543518	2,593079
0,251000	0,520477	4,856873
0,252000	0,531921	4,999847
0,253000	0,535736	4,999847
0,254000	0,521088	4,999847
0,255000	0,549774	4,999847
0,256000	0,511322	4,999847
0,257000	0,563049	4,999847
0,258000	0,502472	4,999847
0,259000	0,575104	4,555664
0,260000	0,494080	3,150940
0,261000	0,583344	3,183289
0,262000	0,501556	4,554443
0,263000	0,568085	4,999847
0,264000	0,520630	4,999847
0,265000	0,554047	4,999847
0,266000	0,537872	4,999847
0,267000	0,541534	4,999847
0,268000	0,553589	4,999847
0,269000	0,529633	2,719116
0,270000	0,568390	3,654785
0,271000	0,519714	3,217163
0,272000	0,581818	4,898682
0,273000	0,510406	4,999847
0,274000	0,594635	4,999847
0,275000	0,502167	4,999847
0,276000	0,594025	4,999847
0,277000	0,519104	4,999847
0,278000	0,578156	4,999847
0,279000	0,538788	4,132843
0,280000	0,563812	2,901154
0,281000	0,534821	4,857025
0,282000	0,527496	3,970490
0,283000	0,561981	4,531860
0,284000	0,534210	4,999847
0,285000	0,585632	4,999847
0,286000	0,527802	4,999847
0,287000	0,601654	4,999847
0,288000	0,519562	4,429779
0,289000	0,615082	3,958435
0,290000	0,516510	3,537292
0,291000	0,605621	3,481598
0,292000	0,538330	4,505768
0,293000	0,588837	4,999847
0,294000	0,558167	4,999847
0,295000	0,574188	4,999847
0,296000	0,576630	4,999847
0,297000	0,561523	4,999847
0,298000	0,594025	4,999847
0,299000	0,549927	4,606171
0,300000	0,608978	2,779694
0,301000	0,539398	4,999847
0,302000	0,623779	4,442749
0,303000	0,530243	4,999847
0,304000	0,635376	4,999847
0,305000	0,537415	4,999847
0,306000	0,616913	4,999847
0,307000	0,559692	4,999847
0,308000	0,600586	4,999847
0,309000	0,579681	3,166656
0,310000	0,585632	3,935699
0,311000	0,597839	4,298401
0,312000	0,572968	4,999847
0,313000	0,615387	4,999847
0,314000	0,560913	4,999847
0,315000	0,631866	4,999847
0,316000	0,551453	4,999847
0,317000	0,646667	4,999847
0,318000	0,542297	4,679108
0,319000	0,648041	4,656372
0,320000	0,559692	3,901520
0,321000	0,629578	4,378815
0,322000	0,582123	4,589844
0,323000	0,613251	4,999847
0,324000	0,602875	4,999847
0,325000	0,598602	4,999847
0,326000	0,621796	4,999847
0,327000	0,585937	4,999847
0,328000	0,639496	4,999847
0,329000	0,574799	3,151855
0,330000	0,655365	2,417755
0,331000	0,564728	3,524933
0,332000	0,670013	4,999847
0,333000	0,560150	4,999847
0,334000	0,660858	4,999847
0,335000	0,584869	4,999847
0,336000	0,643158	4,999847
0,337000	0,607300	4,999847
0,338000	0,627289	4,927673
0,339000	0,627747	4,631500
0,340000	0,613251	3,485718
0,341000	0,646820	4,839020
0,342000	0,600891	4,007111
0,343000	0,664215	4,884338
0,344000	0,589447	4,999847
0,345000	0,680237	4,999847
0,346000	0,579681	4,999847
0,347000	0,693665	4,999847
0,348000	0,586243	4,991608
0,349000	0,674896	4,055634
0,350000	0,610809	3,316956
0,351000	0,657654	3,012543
0,352000	0,633087	4,999847
0,353000	0,642090	4,999847
0,354000	0,652924	4,999847
0,355000	0,628204	4,999847
0,356000	0,672607	4,999847
0,357000	0,616913	4,999847
0,358000	0,689697	4,873505
0,359000	0,606232	3,936157
0,360000	0,705719	3,235931
0,361000	0,597382	2,561340
0,362000	0,709381	4,182587
0,363000	0,614014	4,999847
0,364000	0,690002	4,999847
0,365000	0,638428	4,999847
0,366000	0,673218	4,999847
0,367000	0,660248	4,999847
0,368000	0,658569	4,999847
0,369000	0,680389	4,192810
0,370000	0,645447	2,667999
0,371000	0,699463	4,426117
0,372000	0,634003	4,423370
0,373000	0,716553	4,999847
0,374000	0,623932	4,999847
0,375000	0,731354	4,999847
0,376000	0,616913	4,999847
0,377000	0,724030	4,999847
0,378000	0,642700	4,999847
0,379000	0,705719	4,554596
0,380000	0,666656	3,099060
0,381000	0,689850	4,607239
0,382000	0,688171	4,573975
0,383000	0,675354	4,999847
0,384000	0,673370	4,999847
0,385000	0,642548	4,999847
0,386000	0,716705	4,999847
0,387000	0,647430	4,999847
0,388000	0,740814	4,999847
0,389000	0,641174	3,738861
0,390000	0,757141	3,799133
0,391000	0,645599	4,281616
0,392000	0,739746	4,999847
0,393000	0,671387	4,999847
0,394000	0,722198	4,999847
0,395000	0,694885	4,999847
0,396000	0,706482	4,999847
0,397000	0,715942	4,999847
0,398000	0,692139	4,999847
0,399000	0,735168	4,435883
0,400000	0,680237	3,902740
0,401000	0,752411	2,944946
0,402000	0,669556	4,999847
0,403000	0,768890	4,999847
0,404000	0,660095	4,999847
0,405000	0,774689	4,999847
0,406000	0,675049	4,999847
0,407000	0,755310	4,999847
0,408000	0,700226	4,999847
0,409000	0,737915	4,097900
0,410000	0,722809	2,203064
0,411000	0,723267	4,872742
0,412000	0,743713	4,999847
0,413000	0,709991	4,999847
0,414000	0,762482	4,999847
0,415000	0,698090	4,999847
0,416000	0,779572	4,999847
0,417000	0,687866	4,999847
0,418000	0,795746	4,943848
0,419000	0,678864	4,999847
0,420000	0,774841	4,148865
0,421000	0,688629	4,340057
0,422000	0,752411	4,267120
0,423000	0,709229	4,999847
0,424000	0,732422	4,999847
0,425000	0,728302	4,999847
0,426000	0,717926	4,999847
0,427000	0,748138	4,999847
0,428000	0,705719	4,599915
0,429000	0,766296	3,737488
0,430000	0,695343	4,320068
0,431000	0,785217	4,093475
0,432000	0,689240	4,912109
0,433000	0,802155	4,999847
0,434000	0,690460	4,999847
0,435000	0,784912	4,999847
0,436000	0,714264	4,999847
0,437000	0,765686	4,999847
0,438000	0,736237	4,999847
0,439000	0,749817	4,637604
0,440000	0,757141	2,927551
0,441000	0,736084	4,999847
0,442000	0,776215	3,938751
0,443000	0,723724	4,999847
0,444000	0,793152	4,999847
0,445000	0,713196	4,999847
0,446000	0,809021	4,999847
0,447000	0,703735	4,999847
0,448000	0,816650	4,999847
0,449000	0,715332	3,757782
0,450000	0,797424	3,478394
0,451000	0,739746	3,972473
0,452000	0,780792	4,999847
0,453000	0,762024	4,999847
0,454000	0,765533	4,999847
0,455000	0,781860	4,999847
0,456000	0,748901	4,999847
0,457000	0,796509	4,999847
0,458000	0,736847	4,999847
0,459000	0,813904	3,884125
0,460000	0,726776	3,452454
0,461000	0,831299	3,828278
0,462000	0,717773	3,884583
0,463000	0,831299	4,999847
0,464000	0,742340	4,999847
0,465000	0,814056	4,999847
0,466000	0,765991	4,999847
0,467000	0,796967	4,999847
0,468000	0,787201	4,999847
0,469000	0,780182	3,856964
0,470000	0,805511	2,769318
0,471000	0,769806	4,938049
0,472000	0,825043	4,265137
0,473000	0,755005	4,999847
0,474000	0,743561	4,999847
0,475000	0,751495	4,999847
0,476000	0,755157	4,999847
0,477000	0,759735	4,999847
0,478000	0,857086	4,999847
0,479000	0,765533	4,124603
0,480000	0,830078	3,041992
0,481000	0,783691	4,177856
0,482000	0,811005	4,385834
0,483000	0,803680	4,747620
0,484000	0,795593	4,999847
0,485000	0,822601	4,999847
0,486000	0,755157	4,999847
0,487000	0,828247	4,999847
0,488000	0,762482	4,999847
0,489000	0,855560	3,354950
0,490000	0,756378	4,693451
0,491000	0,874634	2,702637
0,492000	0,759888	4,918060
0,493000	0,857544	4,999847
0,494000	0,784454	4,999847
0,495000	0,840149	4,999847
0,496000	0,806122	4,999847
0,497000	0,824127	4,999847
0,498000	0,827789	4,999847
0,499000	0,809174	4,936676
0,500000	0,847473	3,576660
0,501000	0,794830	4,023590
0,502000	0,865936	2,975616
0,503000	0,781860	4,999847
0,504000	0,882263	4,999847
0,505000	0,770416	4,999847
0,506000	0,884399	4,999847
0,507000	0,782471	4,999847
0,508000	0,864258	4,999847
0,509000	0,806122	3,332520
0,510000	0,846252	3,321838
0,511000	0,827637	4,999847
0,512000	0,830383	4,999847
0,513000	0,848389	4,999847
0,514000	0,815277	4,999847
0,515000	0,868225	4,999847
0,516000	0,800629	4,999847
0,517000	0,883789	4,999847
0,518000	0,787354	4,999847
0,519000	0,895844	3,712616
0,520000	0,776215	2,843781
0,521000	0,697632	4,931641
0,522000	0,669861	4,387512
0,523000	0,657349	4,999847
0,524000	0,651398	4,999847
0,525000	0,648499	4,999847
0,526000	0,647430	4,999847
0,527000	0,646515	4,999847
0,528000	0,646362	4,737701
0,529000	0,646515	3,449554
0,530000	0,646210	3,503418
0,531000	0,646973	3,331146
0,532000	0,649872	4,999847
0,533000	0,649719	4,999847
0,534000	0,649872	4,999847
0,535000	0,649872	4,999847
0,536000	0,649872	4,999847
0,537000	0,649719	4,999847
0,538000	0,649719	4,999847
0,539000	0,649567	4,448395
0,540000	0,595093	3,142853
0,541000	0,493927	4,028625
0,542000	0,439911	3,988495
0,543000	0,420837	4,999847
0,544000	0,410461	4,999847
0,545000	0,404663	4,999847
0,546000	0,406799	4,999847
0,547000	0,400085	4,999847
0,548000	0,409088	4,349976
0,549000	0,398560	3,783264
0,550000	0,412598	3,814545
0,551000	0,397644	2,746735
0,552000	0,416107	4,999847
0,553000	0,397644	4,999847
0,554000	0,414124	4,999847
0,555000	0,402527	4,999847
0,556000	0,412750	4,999847
0,557000	0,407562	4,999847
0,558000	0,411072	4,966736
0,559000	0,413208	4,034576
0,560000	0,411072	4,029541
0,561000	0,435638	3,504181
0,562000	0,424194	4,003143
0,563000	0,439148	4,999847
0,564000	0,422211	4,999847
0,565000	0,444031	4,999847
0,566000	0,420532	4,999847
0,567000	0,447388	4,999847
0,568000	0,424042	4,999847
0,569000	0,443573	2,902222
0,570000	0,429687	4,314575
0,571000	0,439911	3,440247
0,572000	0,435791	4,999847
0,573000	0,437164	4,999847
0,574000	0,442047	4,999847
0,575000	0,434113	4,999847
0,576000	0,447235	4,999847
0,577000	0,431213	4,999847
0,578000	0,452728	4,999847
0,579000	0,428925	4,188080
0,580000	0,457916	3,619080
0,581000	0,426483	3,567657
0,582000	0,458984	4,431152
0,583000	0,433350	4,999847
0,584000	0,454102	4,999847
0,585000	0,440826	4,999847
0,586000	0,450134	4,999847
0,587000	0,448456	4,999847
0,588000	0,437317	4,999847
0,589000	0,433502	3,769684
0,590000	0,432434	3,391266
0,591000	0,457458	2,948914
0,592000	0,436707	4,800110
0,593000	0,466919	4,999847
0,594000	0,434723	4,999847
0,595000	0,474548	4,999847
0,596000	0,435181	4,999847
0,597000	0,471039	4,999847
0,598000	0,444641	4,696350
0,599000	0,464935	4,503784
0,600000	0,453186	4,999847
0,601000	0,459137	3,432007
0,602000	0,461426	4,009857
0,603000	0,454712	4,999847
0,604000	0,469055	4,999847
0,605000	0,450134	4,999847
0,606000	0,476837	4,999847
0,607000	0,445557	4,999847
0,608000	0,483398	4,273376
0,609000	0,441437	3,660889
0,610000	0,488892	3,867340
0,611000	0,445862	3,542480
0,612000	0,481873	4,999847
0,613000	0,455933	4,999847
0,614000	0,474854	4,999847
0,615000	0,466003	4,999847
0,616000	0,468903	4,999847
0,617000	0,475311	4,999847
0,618000	0,463257	4,680939
0,619000	0,483856	3,982391
0,620000	0,457458	3,173370
0,621000	0,492401	4,234314
0,622000	0,452881	4,999847
0,623000	0,499725	4,765472
0,624000	0,447693	4,999847
0,625000	0,500946	4,999847
0,626000	0,457611	4,999847
0,627000	0,492706	4,999847
0,628000	0,469055	4,999847
0,629000	0,484772	3,421478
0,630000	0,479889	2,754822
0,631000	0,477295	4,696960
0,632000	0,490570	4,999847
0,633000	0,470734	4,999847
0,634000	0,499573	4,999847
0,635000	0,464783	4,999847
0,636000	0,508881	4,999847
0,637000	0,459442	4,999847
0,638000	0,518036	4,999847
0,639000	0,457001	4,557190
0,640000	0,513000	3,931885
0,641000	0,470886	3,881226
0,642000	0,502777	4,249268
0,643000	0,483246	4,999847
0,644000	0,494080	4,999847
0,645000	0,495148	4,999847
0,646000	0,486145	4,999847
0,647000	0,506439	4,999847
0,648000	0,478821	4,964600
0,649000	0,516510	4,675293
0,650000	0,471954	3,322144
0,651000	0,526123	4,715881
0,652000	0,466156	4,999847
0,653000	0,534821	4,999847
0,654000	0,470123	4,999847
0,655000	0,523224	4,999847
0,656000	0,484619	4,999847
0,657000	0,513000	4,999847
0,658000	0,498047	4,999847
0,659000	0,503235	3,886566
0,660000	0,511017	3,123779
0,661000	0,494537	4,782410
0,662000	0,522919	4,305725
0,663000	0,486450	4,999847
0,664000	0,534210	4,999847
0,665000	0,478973	4,999847
0,666000	0,544281	4,999847
0,667000	0,472565	4,999847
0,668000	0,546417	4,999847
0,669000	0,484161	3,831024
0,670000	0,533600	2,877502
0,671000	0,499725	4,907532
0,672000	0,522461	4,999847
0,673000	0,514069	4,999847
0,674000	0,511932	4,999847
0,675000	0,527802	4,999847
0,676000	0,502472	4,999847
0,677000	0,540619	4,999847
0,678000	0,494385	4,999847
0,679000	0,552826	4,202271
0,680000	0,486603	2,604370
0,681000	0,563354	4,828949
0,682000	0,481567	4,773560
0,683000	0,557251	4,999847
0,684000	0,499115	4,999847
0,685000	0,544128	4,999847
0,686000	0,516205	4,999847
0,687000	0,531616	4,999847
0,688000	0,531464	4,999847
0,689000	0,520935	3,371735
0,690000	0,545654	3,359375
0,691000	0,490417	3,374481
0,692000	0,543213	4,999847
0,693000	0,494843	4,999847
0,694000	0,567932	4,999847
0,695000	0,492401	4,999847
0,696000	0,581818	4,999847
0,697000	0,497131	4,999847
0,698000	0,568237	4,999847
0,699000	0,516205	4,874115
0,700000	0,554199	2,748718
0,701000	0,533905	4,989777
0,702000	0,541382	4,488678
0,703000	0,549469	4,999847
0,704000	0,529633	4,999847
0,705000	0,564575	4,999847
0,706000	0,519714	4,999847
0,707000	0,577850	4,955750
0,708000	0,510101	4,999847
0,709000	0,590820	4,024048
0,710000	0,501862	2,480164
0,711000	0,594940	4,656525
0,712000	0,514374	4,999847
0,713000	0,577545	4,999847
0,714000	0,533447	4,999847
0,715000	0,563812	4,999847
0,716000	0,551453	4,999847
0,717000	0,550537	4,999847
0,718000	0,568237	4,999847
0,719000	0,538788	4,252777
0,720000	0,583801	3,150787
0,721000	0,528717	3,913879
0,722000	0,598297	3,347931
0,723000	0,518951	4,999847
0,724000	0,611115	4,999847
0,725000	0,512085	4,999847
0,726000	0,605316	4,999847
0,727000	0,533295	4,999847
0,728000	0,588989	4,634857
0,729000	0,553436	3,690948
0,730000	0,574646	3,703766
0,731000	0,571594	4,052277
0,732000	0,561829	4,999847
0,733000	0,589294	4,999847
0,734000	0,549469	4,999847
0,735000	0,605011	4,999847
0,736000	0,538940	4,999847
0,737000	0,619354	4,904480
0,738000	0,529480	4,999847
0,739000	0,633240	4,189758
0,740000	0,532074	2,375793
0,741000	0,617371	4,439850
0,742000	0,554199	3,316956
0,743000	0,600586	4,999847
0,744000	0,574799	4,999847
0,745000	0,586243	4,999847
0,746000	0,593719	4,999847
0,747000	0,573273	4,999847
0,748000	0,611420	4,611816
0,749000	0,561218	3,463287
0,750000	0,627136	3,980713
0,751000	0,550995	3,644714
0,752000	0,642395	4,283447
0,753000	0,541534	4,999847
0,754000	0,648499	4,999847
0,755000	0,554504	4,999847
0,756000	0,630035	4,999847
0,757000	0,577087	4,999847
0,758000	0,612946	4,999847
0,759000	0,598145	4,705048
0,760000	0,598755	3,397217
0,761000	0,616608	3,833160
0,762000	0,585937	3,579407
0,763000	0,634308	4,999847
0,764000	0,574188	4,999847
0,765000	0,650940	4,999847
0,766000	0,564270	4,999847
0,767000	0,665588	4,999847
0,768000	0,555115	4,999847
0,769000	0,661163	3,596039
0,770000	0,578613	3,387909
0,771000	0,643311	3,751373
0,772000	0,601501	4,876862
0,773000	0,627289	4,999847
0,774000	0,622406	4,999847
0,775000	0,612946	4,999847
0,776000	0,641479	4,999847
0,777000	0,600281	4,999847
0,778000	0,659332	4,999847
0,779000	0,589447	4,069824
0,780000	0,675201	3,450165
0,781000	0,579681	3,556824
0,782000	0,690155	4,429321
0,783000	0,579681	4,999847
0,784000	0,675201	4,999847
0,785000	0,605469	4,999847
0,786000	0,657806	4,999847
0,787000	0,627899	4,999847
0,788000	0,641937	4,999847
0,789000	0,648346	3,917999
0,790000	0,628204	3,684387
0,791000	0,667114	3,647003
0,792000	0,616302	4,999847
0,793000	0,670471	4,999847
0,794000	0,581055	4,999847
0,795000	0,688171	4,999847
0,796000	0,590363	4,999847
0,797000	0,706940	4,999847
0,798000	0,606384	4,999847
0,799000	0,690002	3,194580
0,800000	0,631714	3,580933
0,801000	0,656433	3,884735
0,802000	0,639954	4,067688
0,803000	0,643005	4,999847
0,804000	0,659180	4,999847
0,805000	0,629883	4,999847
0,806000	0,677795	4,999847
0,807000	0,618591	4,999847
0,808000	0,694580	4,999847
0,809000	0,608063	3,795166
0,810000	0,709534	3,811798
0,811000	0,599518	4,526520
0,812000	0,707397	4,071045
0,813000	0,621490	4,999847
0,814000	0,689087	4,999847
0,815000	0,644989	4,999847
0,816000	0,673370	4,999847
0,817000	0,666351	4,999847
0,818000	0,659027	4,999847
0,819000	0,686188	3,532562
0,820000	0,646362	2,493439
0,821000	0,703735	4,340820
0,822000	0,635071	4,068146
0,823000	0,719757	4,999847
0,824000	0,625916	4,999847
0,825000	0,735016	4,999847
0,826000	0,624390	4,999847
0,827000	0,722504	4,999847
0,828000	0,649719	4,999847
0,829000	0,704498	3,695221
0,830000	0,672150	3,914185
0,831000	0,688934	3,605499
0,832000	0,693207	4,999847
0,833000	0,675354	4,999847
0,834000	0,711975	4,999847
0,835000	0,663147	4,999847
0,836000	0,729370	4,999847
0,837000	0,652924	4,999847
0,838000	0,745850	4,436493
0,839000	0,643616	3,645935
0,840000	0,756531	3,725433
0,841000	0,653076	3,821259
0,842000	0,737000	3,944702
0,843000	0,676727	4,999847
0,844000	0,720062	4,999847
0,845000	0,699310	4,999847
0,846000	0,700989	4,999847
0,847000	0,713043	4,999847
0,848000	0,684967	4,792938
0,849000	0,730286	3,612061
0,850000	0,672760	4,230499
0,851000	0,753784	4,092560
0,852000	0,671234	4,821625
0,853000	0,772552	4,999847
0,854000	0,664825	4,999847
0,855000	0,773468	4,999847
0,856000	0,684357	4,999847
0,857000	0,756531	4,999847
0,858000	0,710907	4,639435
0,859000	0,743256	3,459015
0,860000	0,734253	3,343964
0,861000	0,728760	3,489990
0,862000	0,754547	3,997040
0,863000	0,714569	4,999847
0,864000	0,770111	4,999847
0,865000	0,702362	4,999847
0,866000	0,785980	4,999847
0,867000	0,690613	4,889526
0,868000	0,801086	4,999847
0,869000	0,688171	4,213715
0,870000	0,788422	3,951569
0,871000	0,711365	3,676147
0,872000	0,767670	4,999847
0,873000	0,734558	4,999847
0,874000	0,752411	4,999847
0,875000	0,757294	4,999847
0,876000	0,738373	4,999847
0,877000	0,772095	4,999847
0,878000	0,724487	4,559174
0,879000	0,790100	4,429626
0,880000	0,714569	3,403625
0,881000	0,806274	4,036102
0,882000	0,704498	3,921509
0,883000	0,818329	4,999847
0,884000	0,710907	4,999847
0,885000	0,799103	4,999847
0,886000	0,734863	4,999847
0,887000	0,781097	4,999847
0,888000	0,758057	4,782562
0,889000	0,765533	4,168396
0,890000	0,779724	3,272400
0,891000	0,752869	4,286652
0,892000	0,796661	4,999847
0,893000	0,738068	4,999847
0,894000	0,813446	4,999847
0,895000	0,727844	4,999847
0,896000	0,811615	4,999847
0,897000	0,710449	4,999847
0,898000	0,828247	4,999847
0,899000	0,733795	4,544525
0,900000	0,813904	3,375244
0,901000	0,760193	4,621735
0,902000	0,798035	4,438324
0,903000	0,783081	4,999847
0,904000	0,781708	4,999847
0,905000	0,802612	4,999847
0,906000	0,768738	4,999847
0,907000	0,821686	4,999847
0,908000	0,757141	4,411774
0,909000	0,839691	3,383484
0,910000	0,746307	2,331390
0,911000	0,748749	4,193420
0,912000	0,755768	4,999847
0,913000	0,758362	4,999847
0,914000	0,759735	4,999847
0,915000	0,858917	4,999847
0,916000	0,755310	4,999847
0,917000	0,864410	4,999847
0,918000	0,745850	4,999847
0,919000	0,850220	4,165955
0,920000	0,769501	2,624817
0,921000	0,832977	4,438477
0,922000	0,792542	4,056091
0,923000	0,815430	4,999847
0,924000	0,812988	4,999847
0,925000	0,800781	4,999847
0,926000	0,832672	4,999847
0,927000	0,787659	4,999847
0,928000	0,852356	4,999847
0,929000	0,774841	4,683228
0,930000	0,869446	4,179535
0,931000	0,764465	3,974762
0,932000	0,881805	4,474182
0,933000	0,770264	4,999847
0,934000	0,861816	4,999847
0,935000	0,793457	4,999847
0,936000	0,843506	4,999847
0,937000	0,816040	4,999847
0,938000	0,827789	4,999847
0,939000	0,837402	3,984528
0,940000	0,812073	3,358612
0,941000	0,856781	3,609772
0,942000	0,797882	4,037933
0,943000	0,874786	4,881287
0,944000	0,785675	4,999847
0,945000	0,889740	4,999847
0,946000	0,773773	4,999847
0,947000	0,886230	4,827271
0,948000	0,790253	4,729004
0,949000	0,866241	3,150330
0,950000	0,813751	3,655548
0,951000	0,828400	4,196320
0,952000	0,815582	4,461823
0,953000	0,814362	4,999847
0,954000	0,838776	4,999847
0,955000	0,800171	4,999847
0,956000	0,856628	4,999847
0,957000	0,786743	4,999847
0,958000	0,713348	4,999847
0,959000	0,678711	3,867798
0,960000	0,662994	3,779755
0,961000	0,655823	4,674683
0,962000	0,652466	3,816986
0,963000	0,650635	4,999847
0,964000	0,649872	4,999847
0,965000	0,649567	4,999847
0,966000	0,648956	4,999847
0,967000	0,648956	4,704285
0,968000	0,649109	4,999847
0,969000	0,648346	3,750763
0,970000	0,648956	4,424133
0,971000	0,648651	2,699127
0,972000	0,648956	4,999847
0,973000	0,648956	4,999847
0,974000	0,648804	4,999847
0,975000	0,648804	4,999847
0,976000	0,648804	4,999847
0,977000	0,648804	4,999847
0,978000	0,526733	4,999847
0,979000	0,449371	4,231415
0,980000	0,432739	3,643646
0,981000	0,404968	4,999847
0,982000	0,413055	3,497314
0,983000	0,398865	4,975281
0,984000	0,406799	4,999847
0,985000	0,401154	4,999847
0,986000	0,404358	4,999847
0,987000	0,404205	4,999847
0,988000	0,402985	4,999847
0,989000	0,407867	4,007874
0,990000	0,401001	3,751984
0,991000	0,411377	3,194122
0,992000	0,399780	4,999847
0,993000	0,415344	4,999847
0,994000	0,397949	4,999847
0,995000	0,419312	4,999847
0,996000	0,398865	4,999847
0,997000	0,417633	4,999847
0,998000	0,385132	4,818573
0,999000	0,400848	4,034729

