LabVIEW Measurement	
Writer_Version	2
Reader_Version	2
Separator	Tab
Decimal_Separator	,
Multi_Headings	Yes
X_Columns	One
Time_Pref	Absolute
Operator	d.nicolai
Date	2023/11/09
Time	16:04:05,6565121999996605588
***End_of_Header***	
	
Channels	2		
Samples	1000	1000	
Date	2023/11/09	2023/11/09	
Time	16:04:21,6265137999996760918	16:04:21,6265137999996760918	
Y_Unit_Label	Volts	Volts	
X_Dimension	Time	Time	
X0	0,0000000000000000E+0	0,0000000000000000E+0	
Delta_X	0,001000	0,001000	
***End_of_Header***			
X_Value	powebox	triggerbox	Comment
0,000000	0,711060	0,865784
0,001000	0,747375	4,999847
0,002000	0,698547	2,420502
0,003000	0,765686	4,908447
0,004000	0,686035	4,999847
0,005000	0,781555	4,999847
0,006000	0,675812	4,999847
0,007000	0,796661	4,999847
0,008000	0,686493	4,635468
0,009000	0,778809	2,948761
0,010000	0,711517	4,153442
0,011000	0,760651	3,494720
0,012000	0,734406	4,999847
0,013000	0,743561	4,999847
0,014000	0,755463	4,999847
0,015000	0,728607	4,999847
0,016000	0,774689	4,999847
0,017000	0,716095	4,999847
0,018000	0,792389	4,999847
0,019000	0,704193	3,969269
0,020000	0,808563	2,657928
0,021000	0,694275	4,958344
0,022000	0,815735	3,880768
0,023000	0,715942	4,999847
0,024000	0,795593	4,999847
0,025000	0,740204	4,999847
0,026000	0,770569	4,999847
0,027000	0,759125	4,999847
0,028000	0,725403	4,999847
0,029000	0,748901	3,534851
0,030000	0,713654	1,634216
0,031000	0,767212	4,164734
0,032000	0,702667	4,999847
0,033000	0,784149	4,999847
0,034000	0,692749	4,999847
0,035000	0,800018	4,999847
0,036000	0,689240	4,999847
0,037000	0,798798	4,999847
0,038000	0,714264	4,999847
0,039000	0,779419	4,270020
0,040000	0,736542	3,581696
0,041000	0,762787	4,985504
0,042000	0,757599	3,002167
0,043000	0,746002	4,999847
0,044000	0,776062	4,999847
0,045000	0,732574	4,999847
0,046000	0,792999	4,999847
0,047000	0,721436	4,999847
0,048000	0,810089	4,956360
0,049000	0,710602	3,542328
0,050000	0,825958	3,889160
0,051000	0,718384	3,627319
0,052000	0,816193	4,983215
0,053000	0,742035	4,999847
0,054000	0,798492	4,999847
0,055000	0,764008	4,999847
0,056000	0,781860	4,999847
0,057000	0,783997	4,999847
0,058000	0,766144	4,999847
0,059000	0,787964	3,875427
0,060000	0,732117	4,055481
0,061000	0,810242	4,104767
0,062000	0,735016	3,831329
0,063000	0,834656	4,999847
0,064000	0,728302	4,999847
0,065000	0,849304	4,999847
0,066000	0,745697	4,999847
0,067000	0,834351	4,999847
0,068000	0,770264	4,999847
0,069000	0,816498	3,159027
0,070000	0,790710	3,437042
0,071000	0,800323	4,282379
0,072000	0,810852	4,333496
0,073000	0,785370	4,999847
0,074000	0,829773	4,999847
0,075000	0,769958	4,999847
0,076000	0,847168	4,999847
0,077000	0,757751	4,999847
0,078000	0,862732	4,999847
0,079000	0,749664	3,215485
0,080000	0,867004	3,602448
0,081000	0,772858	3,435822
0,082000	0,845795	3,099518
0,083000	0,794525	4,999847
0,084000	0,828552	4,999847
0,085000	0,815735	4,999847
0,086000	0,813446	4,999847
0,087000	0,835724	4,999847
0,088000	0,796356	4,999847
0,089000	0,853424	2,939758
0,090000	0,782166	2,854614
0,091000	0,869598	4,999847
0,092000	0,768890	4,376831
0,093000	0,881348	4,999847
0,094000	0,772247	4,999847
0,095000	0,874176	4,999847
0,096000	0,794373	4,999847
0,097000	0,853577	4,999847
0,098000	0,816956	4,999847
0,099000	0,834656	4,281769
0,100000	0,836639	4,703217
0,101000	0,817719	4,443512
0,102000	0,855713	4,601440
0,103000	0,801849	4,867859
0,104000	0,871582	4,999847
0,105000	0,787201	4,999847
0,106000	0,882874	4,999847
0,107000	0,774536	4,999847
0,108000	0,887909	4,999847
0,109000	0,789032	3,454132
0,110000	0,872650	3,488922
0,111000	0,751190	4,999847
0,112000	0,693970	4,975128
0,113000	0,668182	4,999847
0,114000	0,655975	4,999847
0,115000	0,650635	4,999847
0,116000	0,647736	4,999847
0,117000	0,646515	4,999847
0,118000	0,645752	4,618530
0,119000	0,645294	3,430328
0,120000	0,645447	3,106384
0,121000	0,644989	4,522552
0,122000	0,644836	3,725891
0,123000	0,645294	4,999847
0,124000	0,644836	4,999847
0,125000	0,644989	4,999847
0,126000	0,644989	4,999847
0,127000	0,645142	4,999847
0,128000	0,644836	4,841309
0,129000	0,645294	3,109589
0,130000	0,645294	3,825226
0,131000	0,644836	4,859009
0,132000	0,644989	3,930969
0,133000	0,645905	4,999847
0,134000	0,645294	4,999847
0,135000	0,609436	4,999847
0,136000	0,526581	4,999847
0,137000	0,487823	4,999847
0,138000	0,473328	4,761658
0,139000	0,469513	4,360657
0,140000	0,468750	4,999847
0,141000	0,469360	3,411713
0,142000	0,469513	3,050995
0,143000	0,471039	4,999847
0,144000	0,471039	4,999847
0,145000	0,470734	4,999847
0,146000	0,471802	4,999847
0,147000	0,469055	4,999847
0,148000	0,468445	4,999847
0,149000	0,470581	2,228851
0,150000	0,473938	4,257965
0,151000	0,473938	4,999847
0,152000	0,473633	4,948883
0,153000	0,473785	4,999847
0,154000	0,475006	4,999847
0,155000	0,476379	4,999847
0,156000	0,477142	4,999847
0,157000	0,478058	4,999847
0,158000	0,478058	4,855957
0,159000	0,479889	4,026489
0,160000	0,480347	3,318176
0,161000	0,480652	3,582764
0,162000	0,448761	3,930817
0,163000	0,451355	4,999847
0,164000	0,461578	4,999847
0,165000	0,464630	4,999847
0,166000	0,467377	4,999847
0,167000	0,468140	4,999847
0,168000	0,468750	4,691620
0,169000	0,469055	3,739166
0,170000	0,465393	4,296570
0,171000	0,468445	4,784851
0,172000	0,466156	4,616852
0,173000	0,469666	4,999847
0,174000	0,464783	4,999847
0,175000	0,471191	4,999847
0,176000	0,464935	4,999847
0,177000	0,473175	4,999847
0,178000	0,467529	4,999847
0,179000	0,474701	4,198303
0,180000	0,473328	4,496918
0,181000	0,480804	4,270935
0,182000	0,487213	4,450378
0,183000	0,491028	4,999847
0,184000	0,494690	4,999847
0,185000	0,493622	4,999847
0,186000	0,498657	4,999847
0,187000	0,496368	4,999847
0,188000	0,502777	4,648590
0,189000	0,495758	3,997345
0,190000	0,504913	4,411621
0,191000	0,494843	3,790131
0,192000	0,505371	4,999847
0,193000	0,492249	4,999847
0,194000	0,502167	4,999847
0,195000	0,497742	4,999847
0,196000	0,502167	4,999847
0,197000	0,501099	4,999847
0,198000	0,502167	4,999847
0,199000	0,506592	4,719543
0,200000	0,503235	4,362183
0,201000	0,510406	3,544312
0,202000	0,502167	4,320831
0,203000	0,513611	4,999847
0,204000	0,498199	4,999847
0,205000	0,515442	4,999847
0,206000	0,503998	4,999847
0,207000	0,518494	4,999847
0,208000	0,508423	4,338531
0,209000	0,515747	3,821106
0,210000	0,509186	1,854858
0,211000	0,512543	3,545227
0,212000	0,512390	4,999847
0,213000	0,487213	4,999847
0,214000	0,492554	4,999847
0,215000	0,468140	4,999847
0,216000	0,493622	4,999847
0,217000	0,480804	4,999847
0,218000	0,512085	4,999847
0,219000	0,495758	4,176636
0,220000	0,525818	1,606598
0,221000	0,502777	2,774506
0,222000	0,525055	3,816071
0,223000	0,513763	4,999847
0,224000	0,524445	4,999847
0,225000	0,520782	4,999847
0,226000	0,519104	4,999847
0,227000	0,521698	4,999847
0,228000	0,512543	4,059601
0,229000	0,525970	4,221039
0,230000	0,509949	4,419708
0,231000	0,533295	4,712372
0,232000	0,511169	4,999847
0,233000	0,540466	4,999847
0,234000	0,511322	4,999847
0,235000	0,543365	4,999847
0,236000	0,518188	4,999847
0,237000	0,539856	4,999847
0,238000	0,525360	4,693146
0,239000	0,536499	3,649902
0,240000	0,534668	4,494324
0,241000	0,536346	3,495026
0,242000	0,544739	4,674683
0,243000	0,535736	4,999847
0,244000	0,551605	4,999847
0,245000	0,533295	4,999847
0,246000	0,558014	4,999847
0,247000	0,532990	4,999847
0,248000	0,564423	4,999847
0,249000	0,531921	2,924957
0,250000	0,563202	2,415466
0,251000	0,537720	4,080811
0,252000	0,557404	4,999847
0,253000	0,543823	4,999847
0,254000	0,551453	4,999847
0,255000	0,552673	4,999847
0,256000	0,548859	4,999847
0,257000	0,560455	4,999847
0,258000	0,534515	4,999847
0,259000	0,562286	3,818512
0,260000	0,537567	3,662720
0,261000	0,572205	4,590454
0,262000	0,536194	4,735718
0,263000	0,579987	4,999847
0,264000	0,509796	4,999847
0,265000	0,543976	4,999847
0,266000	0,534363	4,999847
0,267000	0,559998	4,999847
0,268000	0,553894	4,680939
0,269000	0,559540	3,402557
0,270000	0,565186	3,032837
0,271000	0,555420	3,600311
0,272000	0,573730	4,999847
0,273000	0,551300	4,999847
0,274000	0,582275	4,999847
0,275000	0,545197	4,999847
0,276000	0,588989	4,999847
0,277000	0,543060	4,999847
0,278000	0,593262	4,977112
0,279000	0,550079	4,373169
0,280000	0,585022	4,578857
0,281000	0,562134	3,218842
0,282000	0,578461	3,846893
0,283000	0,571899	4,864502
0,284000	0,570679	4,999847
0,285000	0,580902	4,999847
0,286000	0,565186	4,999847
0,287000	0,590668	4,985352
0,288000	0,559082	4,999847
0,289000	0,599213	3,511658
0,290000	0,552673	1,188660
0,291000	0,606537	4,811401
0,292000	0,548859	4,999847
0,293000	0,604553	4,999847
0,294000	0,563354	4,999847
0,295000	0,595703	4,999847
0,296000	0,574951	4,999847
0,297000	0,587769	4,999847
0,298000	0,586548	4,999847
0,299000	0,580292	4,508972
0,300000	0,597382	3,357544
0,301000	0,574646	3,843231
0,302000	0,608673	3,589783
0,303000	0,567627	4,999847
0,304000	0,616608	4,999847
0,305000	0,561981	4,999847
0,306000	0,625916	4,999847
0,307000	0,562134	4,999847
0,308000	0,616150	4,763641
0,309000	0,575104	3,120422
0,310000	0,606079	4,333191
0,311000	0,590210	3,563843
0,312000	0,597229	4,999847
0,313000	0,602570	4,999847
0,314000	0,590668	4,999847
0,315000	0,615845	4,999847
0,316000	0,583496	4,999847
0,317000	0,625763	4,999847
0,318000	0,575867	4,999847
0,319000	0,635376	4,306793
0,320000	0,569763	4,021912
0,321000	0,640717	4,505615
0,322000	0,577850	3,663330
0,323000	0,629272	4,536285
0,324000	0,592041	4,999847
0,325000	0,615845	4,999847
0,326000	0,603638	4,999847
0,327000	0,603180	4,999847
0,328000	0,615692	4,518433
0,329000	0,593414	3,170776
0,330000	0,625458	4,182587
0,331000	0,582428	3,560638
0,332000	0,638428	4,447784
0,333000	0,576172	4,999847
0,334000	0,650635	4,999847
0,335000	0,572357	4,999847
0,336000	0,650330	4,999847
0,337000	0,588684	4,999847
0,338000	0,637512	4,737091
0,339000	0,609283	3,882446
0,340000	0,628662	4,203033
0,341000	0,625763	2,985229
0,342000	0,618134	4,093475
0,343000	0,638580	4,999847
0,344000	0,609283	4,999847
0,345000	0,651855	4,999847
0,346000	0,600739	4,999847
0,347000	0,663910	4,999847
0,348000	0,594025	4,999847
0,349000	0,674896	3,671112
0,350000	0,596161	4,543762
0,351000	0,666351	3,738403
0,352000	0,614014	4,368134
0,353000	0,653381	4,999847
0,354000	0,630798	4,999847
0,355000	0,641479	4,999847
0,356000	0,645447	4,999847
0,357000	0,630493	4,999847
0,358000	0,659637	4,568634
0,359000	0,620880	3,935699
0,360000	0,671844	4,532471
0,361000	0,609131	4,187775
0,362000	0,683136	3,744812
0,363000	0,600891	4,957275
0,364000	0,691681	4,999847
0,365000	0,610046	4,999847
0,366000	0,670319	4,999847
0,367000	0,591583	4,999847
0,368000	0,639496	4,277191
0,369000	0,635681	3,548126
0,370000	0,643158	3,518372
0,371000	0,658264	3,793182
0,372000	0,634308	4,747467
0,373000	0,675049	4,999847
0,374000	0,624847	4,999847
0,375000	0,689240	4,999847
0,376000	0,614624	4,999847
0,377000	0,702209	4,999847
0,378000	0,605011	4,421844
0,379000	0,701752	3,840179
0,380000	0,623932	2,850494
0,381000	0,683899	4,592438
0,382000	0,641785	4,131470
0,383000	0,668030	4,999847
0,384000	0,661011	4,999847
0,385000	0,654602	4,999847
0,386000	0,678101	4,999847
0,387000	0,642242	4,999847
0,388000	0,693207	4,528046
0,389000	0,630493	3,812866
0,390000	0,708160	3,701019
0,391000	0,620728	3,828430
0,392000	0,721588	4,510040
0,393000	0,618134	4,999847
0,394000	0,711823	4,999847
0,395000	0,642090	4,999847
0,396000	0,694885	4,999847
0,397000	0,662384	4,999847
0,398000	0,679626	4,306793
0,399000	0,682068	4,043274
0,400000	0,666046	3,527679
0,401000	0,699921	2,844543
0,402000	0,654144	4,693756
0,403000	0,716858	4,999847
0,404000	0,642700	4,999847
0,405000	0,731354	4,999847
0,406000	0,632324	4,999847
0,407000	0,744171	4,999847
0,408000	0,641174	4,767303
0,409000	0,725250	3,170624
0,410000	0,663605	4,071503
0,411000	0,706940	3,929138
0,412000	0,684509	4,782715
0,413000	0,690765	4,999847
0,414000	0,703430	4,999847
0,415000	0,676270	4,999847
0,416000	0,721893	4,999847
0,417000	0,663605	4,999847
0,418000	0,738068	4,698944
0,419000	0,652466	4,177246
0,420000	0,753784	3,786163
0,421000	0,642548	3,175659
0,422000	0,758362	3,474426
0,423000	0,664062	4,999847
0,424000	0,738220	4,999847
0,425000	0,686646	4,999847
0,426000	0,713654	4,999847
0,427000	0,700531	4,999847
0,428000	0,695496	3,829041
0,429000	0,724945	3,720551
0,430000	0,688934	2,375336
0,431000	0,746307	3,950958
0,432000	0,678558	4,999847
0,433000	0,763855	4,999847
0,434000	0,667725	4,999847
0,435000	0,779572	4,999847
0,436000	0,664978	4,999847
0,437000	0,773773	4,999847
0,438000	0,690765	4,478149
0,439000	0,754242	4,383240
0,440000	0,714722	4,555359
0,441000	0,737152	2,828522
0,442000	0,736542	4,550629
0,443000	0,722198	4,999847
0,444000	0,756073	4,999847
0,445000	0,708313	4,999847
0,446000	0,774536	4,999847
0,447000	0,697021	4,999847
0,448000	0,791321	4,078064
0,449000	0,664368	3,195953
0,450000	0,774536	4,113617
0,451000	0,666656	4,003754
0,452000	0,758514	4,766235
0,453000	0,691223	4,999847
0,454000	0,740204	4,999847
0,455000	0,713348	4,999847
0,456000	0,724640	4,999847
0,457000	0,733795	4,999847
0,458000	0,709534	4,999847
0,459000	0,751953	4,024048
0,460000	0,696564	2,990723
0,461000	0,768585	3,506470
0,462000	0,685883	4,416199
0,463000	0,784454	4,999847
0,464000	0,675964	4,999847
0,465000	0,794525	4,999847
0,466000	0,695038	4,999847
0,467000	0,773621	4,999847
0,468000	0,718536	4,808197
0,469000	0,726166	3,885651
0,470000	0,718536	4,530792
0,471000	0,729675	3,851776
0,472000	0,754395	4,999847
0,473000	0,723572	4,999847
0,474000	0,775757	4,999847
0,475000	0,712891	4,999847
0,476000	0,792847	4,999847
0,477000	0,701141	4,999847
0,478000	0,807953	4,736328
0,479000	0,695953	4,062042
0,480000	0,808411	4,101410
0,481000	0,721436	4,413300
0,482000	0,790405	3,841858
0,483000	0,745087	4,999847
0,484000	0,773315	4,999847
0,485000	0,765533	4,999847
0,486000	0,757904	4,999847
0,487000	0,784454	4,999847
0,488000	0,743713	4,523621
0,489000	0,802002	3,892822
0,490000	0,730743	3,215027
0,491000	0,818939	3,500519
0,492000	0,720367	4,999847
0,493000	0,835266	4,999847
0,494000	0,726318	4,999847
0,495000	0,827332	4,999847
0,496000	0,750427	4,999847
0,497000	0,809174	4,999847
0,498000	0,772552	4,611664
0,499000	0,792542	4,291992
0,500000	0,792542	3,791199
0,501000	0,776520	3,554535
0,502000	0,811462	4,573669
0,503000	0,762482	4,999847
0,504000	0,829163	4,999847
0,505000	0,750275	4,999847
0,506000	0,846863	4,999847
0,507000	0,739441	4,999847
0,508000	0,860443	4,533386
0,509000	0,755157	3,336487
0,510000	0,844574	2,142181
0,511000	0,778046	4,699097
0,512000	0,827026	4,999847
0,513000	0,799561	4,999847
0,514000	0,810089	4,999847
0,515000	0,819550	4,999847
0,516000	0,793762	4,999847
0,517000	0,838318	4,999847
0,518000	0,779572	4,612732
0,519000	0,856476	3,929749
0,520000	0,766144	2,301483
0,521000	0,871277	4,089966
0,522000	0,756378	4,999847
0,523000	0,876312	4,999847
0,524000	0,780182	4,999847
0,525000	0,855408	4,999847
0,526000	0,802155	4,999847
0,527000	0,837402	4,999847
0,528000	0,823212	4,999847
0,529000	0,818329	4,049988
0,530000	0,842438	3,441772
0,531000	0,804443	4,999847
0,532000	0,861664	4,999847
0,533000	0,789795	4,999847
0,534000	0,876923	4,999847
0,535000	0,775146	4,999847
0,536000	0,886993	4,999847
0,537000	0,777435	4,999847
0,538000	0,879364	4,999847
0,539000	0,800018	4,246063
0,540000	0,858612	2,655945
0,541000	0,822449	3,058014
0,542000	0,840607	3,143158
0,543000	0,843048	4,999847
0,544000	0,822754	4,999847
0,545000	0,862122	4,999847
0,546000	0,807800	4,999847
0,547000	0,877838	4,999847
0,548000	0,792847	4,764557
0,549000	0,713501	2,707672
0,550000	0,677795	3,604431
0,551000	0,661163	4,698792
0,552000	0,653687	4,999847
0,553000	0,650177	4,999847
0,554000	0,648651	4,999847
0,555000	0,647736	4,999847
0,556000	0,647125	4,999847
0,557000	0,646515	4,999847
0,558000	0,646667	4,999847
0,559000	0,646667	4,335937
0,560000	0,646515	2,550049
0,561000	0,646362	3,786011
0,562000	0,646210	4,999847
0,563000	0,646057	4,999847
0,564000	0,645905	4,999847
0,565000	0,646057	4,999847
0,566000	0,646057	4,999847
0,567000	0,646210	4,999847
0,568000	0,646057	4,500580
0,569000	0,646210	3,060303
0,570000	0,646057	2,962952
0,571000	0,636292	4,947510
0,572000	0,621948	4,999847
0,573000	0,562134	4,999847
0,574000	0,529327	4,999847
0,575000	0,509949	4,999847
0,576000	0,501404	4,999847
0,577000	0,494843	4,999847
0,578000	0,485229	4,999847
0,579000	0,490570	3,937836
0,580000	0,494690	3,730469
0,581000	0,496063	3,274078
0,582000	0,497589	4,509888
0,583000	0,499268	4,999847
0,584000	0,499878	4,999847
0,585000	0,501556	4,999847
0,586000	0,502014	4,999847
0,587000	0,504150	4,635620
0,588000	0,502930	4,999847
0,589000	0,506592	3,449860
0,590000	0,504150	3,763428
0,591000	0,506287	4,434357
0,592000	0,502472	4,999847
0,593000	0,503082	4,999847
0,594000	0,484772	4,999847
0,595000	0,494232	4,999847
0,596000	0,499725	4,999847
0,597000	0,499573	4,999847
0,598000	0,487061	4,999847
0,599000	0,490875	4,117889
0,600000	0,486755	2,339935
0,601000	0,480042	3,094940
0,602000	0,473938	4,662476
0,603000	0,488586	4,999847
0,604000	0,498047	4,999847
0,605000	0,498047	4,999847
0,606000	0,501404	4,999847
0,607000	0,501099	4,999847
0,608000	0,502014	4,759827
0,609000	0,502472	3,304596
0,610000	0,508881	3,127899
0,611000	0,517883	3,945923
0,612000	0,517578	4,999847
0,613000	0,514374	4,999847
0,614000	0,511932	4,999847
0,615000	0,511169	4,999847
0,616000	0,513153	4,999847
0,617000	0,512695	4,999847
0,618000	0,513306	4,999847
0,619000	0,512848	4,142914
0,620000	0,515442	2,860107
0,621000	0,513916	4,469757
0,622000	0,517883	4,548492
0,623000	0,520477	4,999847
0,624000	0,516815	4,999847
0,625000	0,515289	4,999847
0,626000	0,514679	4,999847
0,627000	0,516663	4,999847
0,628000	0,516815	4,999847
0,629000	0,519409	3,038940
0,630000	0,518341	2,352295
0,631000	0,520782	4,999847
0,632000	0,517426	4,999847
0,633000	0,521851	4,999847
0,634000	0,517120	4,999847
0,635000	0,522919	4,999847
0,636000	0,520477	4,999847
0,637000	0,524292	4,999847
0,638000	0,520325	4,847412
0,639000	0,524292	3,815155
0,640000	0,525360	4,424896
0,641000	0,524292	3,783417
0,642000	0,525665	3,502655
0,643000	0,524445	4,999847
0,644000	0,528870	4,999847
0,645000	0,526886	4,999847
0,646000	0,533752	4,999847
0,647000	0,528564	4,999847
0,648000	0,536499	4,999847
0,649000	0,529022	3,023224
0,650000	0,536499	3,711090
0,651000	0,529022	4,999847
0,652000	0,535278	4,971466
0,653000	0,532837	4,999847
0,654000	0,535736	4,999847
0,655000	0,537720	4,999847
0,656000	0,536194	4,999847
0,657000	0,524445	4,999847
0,658000	0,528717	4,999847
0,659000	0,540924	3,219147
0,660000	0,511322	3,652344
0,661000	0,536194	3,552704
0,662000	0,524139	4,887238
0,663000	0,545349	4,999847
0,664000	0,533447	4,999847
0,665000	0,547180	4,999847
0,666000	0,523224	4,999847
0,667000	0,539398	4,999847
0,668000	0,542603	4,629211
0,669000	0,547028	2,705994
0,670000	0,551300	4,197693
0,671000	0,548553	4,895020
0,672000	0,556488	4,999847
0,673000	0,548096	4,999847
0,674000	0,535736	4,999847
0,675000	0,535736	4,999847
0,676000	0,559540	4,999847
0,677000	0,543365	4,999847
0,678000	0,564880	4,999847
0,679000	0,550842	4,192047
0,680000	0,564728	4,999847
0,681000	0,556030	4,071350
0,682000	0,561829	4,365692
0,683000	0,560913	4,999847
0,684000	0,559845	4,999847
0,685000	0,566559	4,999847
0,686000	0,559082	4,999847
0,687000	0,571747	4,999847
0,688000	0,557404	4,926147
0,689000	0,576477	3,588257
0,690000	0,554047	3,867493
0,691000	0,580292	4,999847
0,692000	0,555420	4,936829
0,693000	0,580292	4,999847
0,694000	0,562286	4,999847
0,695000	0,576782	4,999847
0,696000	0,568085	4,999847
0,697000	0,572510	4,999847
0,698000	0,573883	4,974365
0,699000	0,569458	4,354401
0,700000	0,579681	4,557648
0,701000	0,565033	3,327789
0,702000	0,585022	3,878479
0,703000	0,561523	4,999847
0,704000	0,590363	4,999847
0,705000	0,558472	4,999847
0,706000	0,595551	4,999847
0,707000	0,561676	4,999847
0,708000	0,590515	4,759216
0,709000	0,569000	3,074188
0,710000	0,585175	3,973389
0,711000	0,578461	4,878845
0,712000	0,581665	4,999847
0,713000	0,586853	4,999847
0,714000	0,577698	4,999847
0,715000	0,594330	4,999847
0,716000	0,572357	4,999847
0,717000	0,600586	4,999847
0,718000	0,568542	4,757385
0,719000	0,606842	3,787537
0,720000	0,566101	3,594360
0,721000	0,609894	3,212433
0,722000	0,572052	4,382935
0,723000	0,602112	4,999847
0,724000	0,581360	4,999847
0,725000	0,594788	4,999847
0,726000	0,589905	4,999847
0,727000	0,579681	4,999847
0,728000	0,585327	4,999847
0,729000	0,577240	2,557220
0,730000	0,605164	2,667542
0,731000	0,576782	3,862762
0,732000	0,615082	4,999847
0,733000	0,574799	4,999847
0,734000	0,623627	4,999847
0,735000	0,574646	4,999847
0,736000	0,622406	4,999847
0,737000	0,587616	4,999847
0,738000	0,613251	4,999847
0,739000	0,592194	3,918610
0,740000	0,603027	4,217987
0,741000	0,602264	2,718201
0,742000	0,595703	4,075470
0,743000	0,613556	4,999847
0,744000	0,590668	4,999847
0,745000	0,623779	4,999847
0,746000	0,584564	4,999847
0,747000	0,632477	4,999695
0,748000	0,580902	4,376678
0,749000	0,641479	3,303223
0,750000	0,582123	3,380737
0,751000	0,631714	4,979553
0,752000	0,597687	4,999847
0,753000	0,624084	4,999847
0,754000	0,609741	4,999847
0,755000	0,615845	4,999847
0,756000	0,621643	4,999847
0,757000	0,608063	4,999847
0,758000	0,632172	4,999847
0,759000	0,599365	3,455353
0,760000	0,640869	3,238983
0,761000	0,589752	3,823547
0,762000	0,649109	4,261017
0,763000	0,585785	4,939575
0,764000	0,653839	4,999847
0,765000	0,593872	4,999847
0,766000	0,641632	4,999847
0,767000	0,611572	4,999847
0,768000	0,633087	4,950104
0,769000	0,625305	2,655182
0,770000	0,624084	3,437042
0,771000	0,637512	4,999847
0,772000	0,613403	4,999847
0,773000	0,646820	4,999847
0,774000	0,606537	4,999847
0,775000	0,658417	4,999847
0,776000	0,573578	4,999847
0,777000	0,648041	4,999847
0,778000	0,585480	4,886322
0,779000	0,662079	4,350586
0,780000	0,609436	3,428497
0,781000	0,652771	3,483734
0,782000	0,625763	4,712524
0,783000	0,640259	4,999847
0,784000	0,639343	4,999847
0,785000	0,628510	4,999847
0,786000	0,650330	4,999847
0,787000	0,619354	4,830780
0,788000	0,664062	4,999847
0,789000	0,611725	3,258820
0,790000	0,676117	4,189453
0,791000	0,603638	4,384155
0,792000	0,686646	4,999847
0,793000	0,605774	4,999847
0,794000	0,675201	4,999847
0,795000	0,622101	4,999847
0,796000	0,659943	4,999847
0,797000	0,637970	4,999847
0,798000	0,646820	4,433899
0,799000	0,652924	4,136047
0,800000	0,634918	4,166718
0,801000	0,667114	3,590240
0,802000	0,624847	4,089661
0,803000	0,680847	4,999847
0,804000	0,614929	4,999847
0,805000	0,693207	4,999847
0,806000	0,607910	4,999847
0,807000	0,701141	4,999847
0,808000	0,619354	4,908600
0,809000	0,684509	3,849030
0,810000	0,638580	3,954926
0,811000	0,669708	4,999847
0,812000	0,655823	4,999847
0,813000	0,657196	4,999847
0,814000	0,672150	4,999847
0,815000	0,644226	4,999847
0,816000	0,686493	4,999847
0,817000	0,633392	4,999847
0,818000	0,699921	4,740906
0,819000	0,624237	3,522491
0,820000	0,713806	3,438110
0,821000	0,615387	4,803772
0,822000	0,711975	4,999847
0,823000	0,634155	4,999847
0,824000	0,693054	4,999847
0,825000	0,654144	4,999847
0,826000	0,678711	4,999847
0,827000	0,673523	4,999847
0,828000	0,664215	4,999847
0,829000	0,690002	3,294678
0,830000	0,652161	2,610779
0,831000	0,706177	4,999847
0,832000	0,639954	4,999847
0,833000	0,720367	4,999847
0,834000	0,630493	4,999847
0,835000	0,734100	4,999847
0,836000	0,631104	4,999847
0,837000	0,722656	4,999847
0,838000	0,654449	4,831085
0,839000	0,704193	3,801270
0,840000	0,674438	4,877930
0,841000	0,689240	3,400574
0,842000	0,694580	4,999847
0,843000	0,675812	4,999847
0,844000	0,712128	4,999847
0,845000	0,662384	4,999847
0,846000	0,728455	4,999847
0,847000	0,650635	4,576721
0,848000	0,743103	4,999847
0,849000	0,637970	3,341827
0,850000	0,753174	3,071594
0,851000	0,650635	4,999847
0,852000	0,733490	4,999847
0,853000	0,673828	4,999847
0,854000	0,715790	4,999847
0,855000	0,695496	4,999847
0,856000	0,699768	4,999847
0,857000	0,715942	4,999847
0,858000	0,686188	4,999847
0,859000	0,734406	3,125916
0,860000	0,673676	3,826447
0,861000	0,750885	3,190613
0,862000	0,662079	4,999847
0,863000	0,766449	4,999847
0,864000	0,652008	4,999847
0,865000	0,768890	4,999847
0,866000	0,676880	4,999847
0,867000	0,749817	4,999847
0,868000	0,700836	4,999847
0,869000	0,706177	2,583618
0,870000	0,696259	2,743683
0,871000	0,689240	4,752350
0,872000	0,714264	4,999847
0,873000	0,675812	4,999847
0,874000	0,731964	4,999847
0,875000	0,662994	4,999847
0,876000	0,747833	4,999847
0,877000	0,653229	4,881592
0,878000	0,757599	4,999847
0,879000	0,617828	3,988190
0,880000	0,737457	3,704681
0,881000	0,669708	4,354553
0,882000	0,732422	4,463196
0,883000	0,698853	4,999847
0,884000	0,719604	4,999847
0,885000	0,720978	4,999847
0,886000	0,705719	4,999847
0,887000	0,740051	4,669800
0,888000	0,692139	4,390717
0,889000	0,757599	2,973175
0,890000	0,680084	2,176971
0,891000	0,772858	4,670868
0,892000	0,670471	4,999847
0,893000	0,786896	4,999847
0,894000	0,680389	4,999847
0,895000	0,770721	4,999847
0,896000	0,704651	4,999847
0,897000	0,752258	4,999847
0,898000	0,727081	4,999847
0,899000	0,735931	3,748932
0,900000	0,747223	4,999847
0,901000	0,722351	4,608765
0,902000	0,765839	4,999847
0,903000	0,710144	4,999847
0,904000	0,782166	4,999847
0,905000	0,694580	4,999847
0,906000	0,796204	4,999847
0,907000	0,687256	4,999847
0,908000	0,808868	4,308319
0,909000	0,710297	2,978363
0,910000	0,790558	2,881470
0,911000	0,733795	4,999847
0,912000	0,769806	4,999847
0,913000	0,754242	4,999847
0,914000	0,755768	4,999847
0,915000	0,774231	4,999847
0,916000	0,741882	4,999847
0,917000	0,792236	4,999847
0,918000	0,729218	4,885254
0,919000	0,808411	3,560028
0,920000	0,717773	4,999847
0,921000	0,824738	3,992767
0,922000	0,714264	4,999847
0,923000	0,829010	4,999847
0,924000	0,739288	4,999847
0,925000	0,810394	4,999847
0,926000	0,761414	4,999847
0,927000	0,790710	4,916992
0,928000	0,781250	4,999847
0,929000	0,774231	2,896423
0,930000	0,799103	2,197266
0,931000	0,758972	4,534149
0,932000	0,816803	4,999847
0,933000	0,745697	4,999847
0,934000	0,833588	4,999847
0,935000	0,734406	4,999847
0,936000	0,849457	4,999847
0,937000	0,742645	4,999847
0,938000	0,846252	4,665985
0,939000	0,766449	3,581238
0,940000	0,827484	4,999847
0,941000	0,787659	3,299866
0,942000	0,809784	4,999847
0,943000	0,807495	4,999847
0,944000	0,793304	4,999847
0,945000	0,826111	4,999847
0,946000	0,778046	4,999847
0,947000	0,843506	4,987946
0,948000	0,764160	4,962769
0,949000	0,860138	2,754059
0,950000	0,751190	3,231506
0,951000	0,872192	4,999847
0,952000	0,769501	4,999847
0,953000	0,859985	4,999847
0,954000	0,791779	4,999847
0,955000	0,840149	4,999847
0,956000	0,812073	4,999847
0,957000	0,821533	4,999847
0,958000	0,831299	4,800568
0,959000	0,805054	3,285828
0,960000	0,850067	3,497467
0,961000	0,789337	3,837585
0,962000	0,866394	4,999847
0,963000	0,774384	4,999847
0,964000	0,878906	4,999847
0,965000	0,766754	4,999847
0,966000	0,882416	4,999847
0,967000	0,789642	4,999847
0,968000	0,863037	4,999847
0,969000	0,811920	2,761078
0,970000	0,843811	2,968750
0,971000	0,832367	4,999847
0,972000	0,825806	4,999847
0,973000	0,851746	4,999847
0,974000	0,810242	4,999847
0,975000	0,869598	4,999847
0,976000	0,795593	4,999847
0,977000	0,882721	4,999847
0,978000	0,781403	4,715881
0,979000	0,890045	3,616638
0,980000	0,784760	4,013367
0,981000	0,874786	4,705200
0,982000	0,796967	4,999847
0,983000	0,863190	4,999847
0,984000	0,829315	4,999847
0,985000	0,843811	4,999847
0,986000	0,737610	4,999847
0,987000	0,687714	4,999847
0,988000	0,665131	4,408112
0,989000	0,654602	2,629242
0,990000	0,649261	2,926636
0,991000	0,647430	4,963989
0,992000	0,645905	4,999847
0,993000	0,645447	4,999847
0,994000	0,645142	4,999847
0,995000	0,644989	4,999847
0,996000	0,644989	4,999847
0,997000	0,644684	4,999847
0,998000	0,644836	4,661560
0,999000	0,644684	3,983765

