LabVIEW Measurement	
Writer_Version	2
Reader_Version	2
Separator	Tab
Decimal_Separator	,
Multi_Headings	Yes
X_Columns	One
Time_Pref	Absolute
Operator	d.nicolai
Date	2023/11/09
Time	15:52:34,4435127999997708487
***End_of_Header***	
	
Channels	2		
Samples	1000	1000	
Date	2023/11/09	2023/11/09	
Time	15:52:34,4435127999997708487	15:52:34,4435127999997708487	
Y_Unit_Label	Volts	Volts	
X_Dimension	Time	Time	
X0	0,0000000000000000E+0	0,0000000000000000E+0	
Delta_X	0,001000	0,001000	
***End_of_Header***			
X_Value	powebox	triggerbox	Comment
0,000000	1,127319	-0,718536
0,001000	1,203461	0,006561
0,002000	1,086273	0,007782
0,003000	1,219482	0,009918
0,004000	1,082916	0,011139
0,005000	1,205444	0,011902
0,006000	1,113434	0,017090
0,007000	1,182709	0,020599
0,008000	1,142426	0,046539
0,009000	1,162720	0,295258
0,010000	1,169739	0,308075
0,011000	1,144104	0,017395
0,012000	1,194611	0,006409
0,013000	1,127167	0,007324
0,014000	1,217957	0,002747
0,015000	1,112671	0,007172
0,016000	1,239777	0,007629
0,017000	1,098785	0,010223
0,018000	1,255035	0,023499
0,019000	1,110382	0,397797
0,020000	1,229095	0,392151
0,021000	1,144562	0,032501
0,022000	1,203918	0,019836
0,023000	1,175995	0,021820
0,024000	1,181946	0,018921
0,025000	1,204834	0,019531
0,026000	1,161346	0,036011
0,027000	1,231689	0,044556
0,028000	1,143188	0,059509
0,029000	1,257019	0,494080
0,030000	1,127014	0,491943
0,031000	1,279602	0,022430
0,032000	1,112061	0,016632
0,033000	1,280670	0,014648
0,034000	1,141510	0,008087
0,035000	1,251984	0,012207
0,036000	1,178436	0,011139
0,037000	1,224823	0,013733
0,038000	1,211395	0,041962
0,039000	1,199799	0,447083
0,040000	1,242828	0,451202
0,041000	1,178589	0,028076
0,042000	1,271210	0,021362
0,043000	1,159363	0,022278
0,044000	1,297455	0,021210
0,045000	1,140594	0,022430
0,046000	1,321259	0,032196
0,047000	1,134796	0,027008
0,048000	1,304779	0,080872
0,049000	1,175690	0,538025
0,050000	1,273193	0,503693
0,051000	1,214600	0,020752
0,052000	1,244659	0,017242
0,053000	1,249695	0,015869
0,054000	1,219025	0,008087
0,055000	1,282501	0,009003
0,056000	1,195679	0,008545
0,057000	1,312408	0,009460
0,058000	1,175232	0,052032
0,059000	1,339874	0,434723
0,060000	1,156464	0,440979
0,061000	1,361389	0,036316
0,062000	1,167908	0,023193
0,063000	1,327820	0,021515
0,064000	1,212311	0,019073
0,065000	1,293640	0,023041
0,066000	1,251678	0,037079
0,067000	1,263275	0,080872
0,068000	1,288910	4,999847
0,069000	1,236420	4,999847
0,070000	1,262665	4,999847
0,071000	1,175232	4,999847
0,072000	1,338654	4,999847
0,073000	1,184998	4,395905
0,074000	1,379700	3,274841
0,075000	1,170349	3,852997
0,076000	1,386414	4,488068
0,077000	1,204376	4,999847
0,078000	1,348419	4,999847
0,079000	1,251373	4,999847
0,080000	1,314240	4,999847
0,081000	1,292725	4,999847
0,082000	1,282654	4,999847
0,083000	1,330872	3,485718
0,084000	1,255493	2,536011
0,085000	1,366425	4,339905
0,086000	1,231079	4,999847
0,087000	1,398468	4,999847
0,088000	1,208954	4,999847
0,089000	1,427460	4,999847
0,090000	1,197815	4,999847
0,091000	1,410522	4,999847
0,092000	1,246338	4,838867
0,093000	1,370850	4,534454
0,094000	1,294098	2,909546
0,095000	1,335144	4,999847
0,096000	1,336823	3,522339
0,097000	1,303864	4,999847
0,098000	1,376495	4,999847
0,099000	1,275787	4,999847
0,100000	1,411896	4,999847
0,101000	1,251068	4,999847
0,102000	1,445007	4,999847
0,103000	1,229095	3,682709
0,104000	1,472626	3,813019
0,105000	1,238708	4,658661
0,106000	1,434021	4,999847
0,107000	1,291656	4,999847
0,108000	1,393585	4,999847
0,109000	1,339874	4,999847
0,110000	1,357880	4,999847
0,111000	1,383667	4,999847
0,112000	1,326447	4,999847
0,113000	1,424255	4,765778
0,114000	1,298676	2,604065
0,115000	1,460114	4,495087
0,116000	1,273956	4,017029
0,117000	1,493530	4,999847
0,118000	1,252441	4,999847
0,119000	1,502533	4,999847
0,120000	1,286469	4,999847
0,121000	1,458435	4,999847
0,122000	1,340637	4,999847
0,123000	1,418304	4,421692
0,124000	1,389923	4,295654
0,125000	1,383057	3,391876
0,126000	1,434479	4,999847
0,127000	1,352234	4,999847
0,128000	1,474762	4,999847
0,129000	1,324921	4,999847
0,130000	1,511383	4,999847
0,131000	1,301270	4,999847
0,132000	1,544800	4,999847
0,133000	1,285248	3,814240
0,134000	1,529999	2,470551
0,135000	1,340179	4,961090
0,136000	1,484985	3,884888
0,137000	1,394501	4,999847
0,138000	1,446228	4,999847
0,139000	1,443176	4,999847
0,140000	1,411591	4,999847
0,141000	1,487579	4,999847
0,142000	1,381378	4,999847
0,143000	1,527710	3,690796
0,144000	1,354828	3,245697
0,145000	1,564789	4,084625
0,146000	1,331787	4,877777
0,147000	1,597290	4,999847
0,148000	1,338654	4,999847
0,149000	1,557770	4,999847
0,150000	1,397552	4,999847
0,151000	1,514130	4,999847
0,152000	1,450806	4,999847
0,153000	1,476898	4,757385
0,154000	1,499786	3,548431
0,155000	1,443481	4,841461
0,156000	1,544037	4,084930
0,157000	1,414337	4,999847
0,158000	1,584320	4,999847
0,159000	1,388397	4,999847
0,160000	1,619568	4,999847
0,161000	1,366730	4,999847
0,162000	1,633759	4,631805
0,163000	1,399689	3,169403
0,164000	1,587830	2,221680
0,165000	1,458435	4,711761
0,166000	1,545868	4,999847
0,167000	1,510162	4,999847
0,168000	1,509399	4,999847
0,169000	1,558685	4,999847
0,170000	1,477661	4,999847
0,171000	1,602478	4,999847
0,172000	1,420288	4,999847
0,173000	1,564484	4,568481
0,174000	1,343689	3,781433
0,175000	1,594849	4,162750
0,176000	1,358643	2,907562
0,177000	1,645355	4,991760
0,178000	1,455078	4,999847
0,179000	1,616669	4,999847
0,180000	1,519318	4,999847
0,181000	1,578979	4,999847
0,182000	1,571808	4,999847
0,183000	1,545105	3,876038
0,184000	1,619415	3,959961
0,185000	1,515198	3,642120
0,186000	1,661530	4,425659
0,187000	1,488647	4,999847
0,188000	1,699524	4,999847
0,189000	1,464081	4,999847
0,190000	1,734467	4,999847
0,191000	1,467438	4,999847
0,192000	1,697388	4,875793
0,193000	1,528931	4,405212
0,194000	1,654053	3,441772
0,195000	1,584320	4,106598
0,196000	1,615448	3,958893
0,197000	1,635132	4,999847
0,198000	1,582489	4,999847
0,199000	1,681061	4,999847
0,200000	1,553192	4,999847
0,201000	1,722107	4,999847
0,202000	1,528320	4,551697
0,203000	1,759644	4,021759
0,204000	1,505737	2,869263
0,205000	1,776581	3,394012
0,206000	1,534119	4,751587
0,207000	1,731110	4,999847
0,208000	1,594086	4,999847
0,209000	1,688995	4,999847
0,210000	1,649017	4,999847
0,211000	1,652679	4,999847
0,212000	1,697998	4,999847
0,213000	1,620483	4,525909
0,214000	1,741943	3,408661
0,215000	1,593018	3,675385
0,216000	1,782379	4,059448
0,217000	1,568451	4,999847
0,218000	1,818848	4,999847
0,219000	1,547546	4,999847
0,220000	1,811218	4,999847
0,221000	1,601257	4,999847
0,222000	1,764984	4,819794
0,223000	1,659241	4,029541
0,224000	1,725311	3,853455
0,225000	1,712952	3,131409
0,226000	1,690521	4,484100
0,227000	1,760559	4,999847
0,228000	1,659851	4,999847
0,229000	1,804504	4,999847
0,230000	1,633453	4,999847
0,231000	1,843109	4,999847
0,232000	1,610870	4,999847
0,233000	1,880188	4,256134
0,234000	1,608429	3,399353
0,235000	1,847534	4,254608
0,236000	1,670227	2,609406
0,237000	1,804657	4,999847
0,238000	1,726990	4,999847
0,239000	1,766510	4,999847
0,240000	1,778717	4,999847
0,241000	1,732941	4,999847
0,242000	1,824493	4,130249
0,243000	1,704102	3,944244
0,244000	1,867676	3,090515
0,245000	1,680145	4,140167
0,246000	1,907959	4,999847
0,247000	1,658478	4,999847
0,248000	1,934357	4,999847
0,249000	1,680756	4,999847
0,250000	1,891479	4,999847
0,251000	1,741333	4,999847
0,252000	1,851959	4,999847
0,253000	1,797028	4,749146
0,254000	1,815643	3,049622
0,255000	1,846466	4,272461
0,256000	1,783447	4,286194
0,257000	1,892395	4,170074
0,258000	1,755219	4,999847
0,259000	1,936493	4,999847
0,260000	1,731262	4,999847
0,261000	1,979980	4,999847
0,262000	1,709747	4,615173
0,263000	1,984406	4,184570
0,264000	1,758881	3,124084
0,265000	1,945038	4,537659
0,266000	1,817169	4,999847
0,267000	1,907349	4,999847
0,268000	1,870422	4,999847
0,269000	1,874237	4,999847
0,270000	1,921539	4,999847
0,271000	1,843262	4,999847
0,272000	1,969910	4,805145
0,273000	1,816101	4,687042
0,274000	2,016907	3,425140
0,275000	1,726532	4,999847
0,276000	1,967010	4,509583
0,277000	1,722870	4,999847
0,278000	2,007751	4,999847
0,279000	1,825256	4,999847
0,280000	1,994171	4,999847
0,281000	1,894836	4,999847
0,282000	1,968384	4,002075
0,283000	1,953583	3,015900
0,284000	1,940002	3,461304
0,285000	1,811829	3,506622
0,286000	1,813202	4,999847
0,287000	1,813660	4,999847
0,288000	1,862030	4,999847
0,289000	2,053223	4,999847
0,290000	1,918640	4,999847
0,291000	2,018585	4,999847
0,292000	1,975555	4,999847
0,293000	1,987000	4,456177
0,294000	2,030182	3,168030
0,295000	1,958466	4,627838
0,296000	2,082062	3,571930
0,297000	1,932068	4,082336
0,298000	2,130737	4,999847
0,299000	1,907196	4,999847
0,300000	2,173767	4,999847
0,301000	1,896057	4,999847
0,302000	2,147675	4,999847
0,303000	1,954956	3,284760
0,304000	2,108154	3,638763
0,305000	2,012634	3,976593
0,306000	2,072296	4,461517
0,307000	2,068329	4,999847
0,308000	2,039642	4,999847
0,309000	2,119904	4,999847
0,310000	2,008514	4,999847
0,311000	2,166595	4,999847
0,312000	1,980743	4,865265
0,313000	2,203064	3,888245
0,314000	1,954498	3,113251
0,315000	2,214661	4,795227
0,316000	1,965637	3,031616
0,317000	2,165680	4,999847
0,318000	2,024689	4,999847
0,319000	2,125702	4,999847
0,320000	2,082062	4,999847
0,321000	2,091064	4,999847
0,322000	2,135162	4,228210
0,323000	2,059631	3,832855
0,324000	2,181854	4,017029
0,325000	2,031403	2,965240
0,326000	2,216644	4,992065
0,327000	2,005768	4,999847
0,328000	2,234802	4,999847
0,329000	1,983643	4,999847
0,330000	2,211914	4,999847
0,331000	1,963196	4,999847
0,332000	1,815338	4,999847
0,333000	1,743774	4,399719
0,334000	1,713409	2,496490
0,335000	1,700592	4,247589
0,336000	1,694946	3,717499
0,337000	1,693115	4,999847
0,338000	1,692047	4,999847
0,339000	1,691589	4,999847
0,340000	1,690826	4,999847
0,341000	1,690369	4,999847
0,342000	1,690369	4,486847
0,343000	1,690979	3,746490
0,344000	1,690826	3,248291
0,345000	1,690369	4,156799
0,346000	1,690369	4,999847
0,347000	1,690521	4,999847
0,348000	1,690369	4,999847
0,349000	1,690674	4,999847
0,350000	1,690216	4,999847
0,351000	1,690216	4,999847
0,352000	1,689606	4,999847
0,353000	1,426392	4,771118
0,354000	1,178741	2,830963
0,355000	1,088715	3,425140
0,356000	1,031036	4,262543
0,357000	1,036377	4,999847
0,358000	1,003571	4,999847
0,359000	1,034546	4,999847
0,360000	0,996552	4,999847
0,361000	1,040344	4,999847
0,362000	0,997314	4,999847
0,363000	1,035767	2,814331
0,364000	1,009064	3,193207
0,365000	1,029816	3,661499
0,366000	1,020355	4,760895
0,367000	1,024628	4,999847
0,368000	1,030884	4,999847
0,369000	1,019592	4,999847
0,370000	1,041412	4,999847
0,371000	1,015320	4,999847
0,372000	1,052399	4,999847
0,373000	1,011200	4,520264
0,374000	1,062622	3,143768
0,375000	1,007538	4,452362
0,376000	1,068268	4,103241
0,377000	0,969696	4,700928
0,378000	1,017609	4,999847
0,379000	1,013489	4,999847
0,380000	1,044617	4,999847
0,381000	1,042175	4,999847
0,382000	1,043549	4,999847
0,383000	1,057892	3,631439
0,384000	1,037445	4,458313
0,385000	1,071320	4,532471
0,386000	1,031189	4,774780
0,387000	1,083679	4,999847
0,388000	1,025391	4,999847
0,389000	1,096039	4,999847
0,390000	1,021576	4,999847
0,391000	1,094666	4,999847
0,392000	1,038361	4,999847
0,393000	1,083527	4,550018
0,394000	1,055603	2,943878
0,395000	1,072998	4,092407
0,396000	1,072540	3,282776
0,397000	1,063690	4,999847
0,398000	1,089020	4,999847
0,399000	1,055145	4,999847
0,400000	1,104279	4,999847
0,401000	1,047058	4,999847
0,402000	1,118622	4,521942
0,403000	1,039429	3,456726
0,404000	1,132965	3,650055
0,405000	1,042023	3,450165
0,406000	1,121368	4,999847
0,407000	1,063538	4,999847
0,408000	1,107330	4,999847
0,409000	1,084442	4,999847
0,410000	1,094513	4,999847
0,411000	1,103516	4,999847
0,412000	1,082458	4,999847
0,413000	1,121826	4,060669
0,414000	1,071930	3,934479
0,415000	1,139069	3,346100
0,416000	1,061554	3,953705
0,417000	1,154938	4,999847
0,418000	1,052704	4,999847
0,419000	1,163483	4,999847
0,420000	1,066284	4,999847
0,421000	1,146088	4,999847
0,422000	1,090851	4,999847
0,423000	1,128998	3,828430
0,424000	1,114197	4,005890
0,425000	1,114197	2,893066
0,426000	1,135559	4,764099
0,427000	1,100006	4,999847
0,428000	1,155701	4,999847
0,429000	1,087952	4,999847
0,430000	1,174774	4,999847
0,431000	1,076202	4,999847
0,432000	1,192780	4,999847
0,433000	1,066742	4,187012
0,434000	1,189880	3,651581
0,435000	1,092529	4,446411
0,436000	1,169128	3,057251
0,437000	1,120605	4,999847
0,438000	1,150665	4,999847
0,439000	1,147308	4,999847
0,440000	1,133728	4,999847
0,441000	1,170502	4,999847
0,442000	1,117249	4,999847
0,443000	1,191864	4,153595
0,444000	1,103058	3,753052
0,445000	1,212921	4,020996
0,446000	1,089935	4,999847
0,447000	1,232147	4,999847
0,448000	1,090088	4,999847
0,449000	1,215515	4,999847
0,450000	1,121979	4,999847
0,451000	1,191101	4,999847
0,452000	1,152191	4,999847
0,453000	1,170349	3,776398
0,454000	1,180573	3,060455
0,455000	1,150665	4,500732
0,456000	1,206055	3,563843
0,457000	1,134033	4,301147
0,458000	1,230164	4,999847
0,459000	1,117706	4,999847
0,460000	1,252289	4,999847
0,461000	1,103668	4,999847
0,462000	1,265564	4,237366
0,463000	1,118774	3,099213
0,464000	1,238098	4,207153
0,465000	1,154022	3,595734
0,466000	1,212463	4,999847
0,467000	1,186523	4,999847
0,468000	1,189117	4,999847
0,469000	1,216431	4,999847
0,470000	1,168365	4,999847
0,471000	1,243896	4,999847
0,472000	1,149292	4,654999
0,473000	1,269684	4,999847
0,474000	1,132355	3,340302
0,475000	1,293335	4,249878
0,476000	1,117401	4,781952
0,477000	1,291046	4,999847
0,478000	1,151123	4,999847
0,479000	1,253357	4,999847
0,480000	1,124878	4,999847
0,481000	1,200409	4,999847
0,482000	1,209259	4,164734
0,483000	1,202087	3,127747
0,484000	1,251984	3,557587
0,485000	1,184540	4,358521
0,486000	1,283569	4,999847
0,487000	1,165009	4,999847
0,488000	1,310730	4,999847
0,489000	1,147156	4,999847
0,490000	1,336060	4,999847
0,491000	1,143951	4,999847
0,492000	1,316071	4,999847
0,493000	1,186371	4,999847
0,494000	1,283112	2,549438
0,495000	1,226196	3,306885
0,496000	1,253662	3,763580
0,497000	1,261902	4,999847
0,498000	1,226349	4,999847
0,499000	1,295319	4,999847
0,500000	1,202850	4,999847
0,501000	1,325989	4,999847
0,502000	1,182709	4,999847
0,503000	1,354828	4,237366
0,504000	1,163635	2,338562
0,505000	1,373901	4,037476
0,506000	1,179504	4,999847
0,507000	1,338196	4,999847
0,508000	1,224670	4,999847
0,509000	1,304321	4,999847
0,510000	1,265564	4,999847
0,511000	1,273041	4,999847
0,512000	1,303711	4,988861
0,513000	1,246033	4,689789
0,514000	1,338196	2,912445
0,515000	1,221161	3,297272
0,516000	1,368713	3,787842
0,517000	1,199341	4,999847
0,518000	1,397858	4,999847
0,519000	1,179199	4,999847
0,520000	1,398926	4,999847
0,521000	1,217804	4,999847
0,522000	1,359406	4,528656
0,523000	1,265106	3,143921
0,524000	1,324310	2,952423
0,525000	1,306763	3,870392
0,526000	1,292572	4,999847
0,527000	1,345825	4,999847
0,528000	1,264801	4,999847
0,529000	1,381531	4,999847
0,530000	1,239777	4,999847
0,531000	1,414185	4,999847
0,532000	1,217651	4,999847
0,533000	1,443787	4,153748
0,534000	1,209564	3,087921
0,535000	1,421967	4,542542
0,536000	1,260071	4,638824
0,537000	1,381531	4,342346
0,538000	1,307983	4,999847
0,539000	1,344910	4,999847
0,540000	1,351624	4,999847
0,541000	1,313324	4,999847
0,542000	1,391754	4,425201
0,543000	1,285400	3,021851
0,544000	1,427917	3,554382
0,545000	1,260071	3,773956
0,546000	1,460114	4,172211
0,547000	1,237335	4,999847
0,548000	1,485138	4,999847
0,549000	1,252289	4,999847
0,550000	1,444702	4,999847
0,551000	1,305542	4,999847
0,552000	1,403961	4,999847
0,553000	1,354370	4,752502
0,554000	1,367645	4,345398
0,555000	1,398773	4,620056
0,556000	1,336060	3,673248
0,557000	1,439209	4,567108
0,558000	1,308746	4,999847
0,559000	1,476746	4,999847
0,560000	1,284485	4,999847
0,561000	1,510010	4,999847
0,562000	1,262360	4,999847
0,563000	1,514740	2,937775
0,564000	1,302490	3,815765
0,565000	1,469879	3,055115
0,566000	1,356354	4,999847
0,567000	1,429901	4,999847
0,568000	1,405792	4,999847
0,569000	1,394501	4,999847
0,570000	1,450348	4,999847
0,571000	1,363068	4,999847
0,572000	1,490784	4,999847
0,573000	1,336365	4,666290
0,574000	1,528168	3,100281
0,575000	1,312408	4,854279
0,576000	1,561737	3,123932
0,577000	1,300201	4,999847
0,578000	1,541595	4,999847
0,579000	1,357117	4,999847
0,580000	1,497345	4,999847
0,581000	1,411591	4,999847
0,582000	1,403656	4,743042
0,583000	1,424866	3,237762
0,584000	1,409302	2,645111
0,585000	1,499176	3,439178
0,586000	1,391449	4,999847
0,587000	1,544647	4,999847
0,588000	1,367340	4,999847
0,589000	1,582336	4,999847
0,590000	1,344452	4,999847
0,591000	1,613007	4,999847
0,592000	1,356354	4,999847
0,593000	1,570740	4,234619
0,594000	1,416473	3,102722
0,595000	1,528473	4,284363
0,596000	1,470337	3,632355
0,597000	1,491241	4,999847
0,598000	1,519165	4,999847
0,599000	1,458435	4,999847
0,600000	1,564026	4,999847
0,601000	1,429138	4,999847
0,602000	1,603851	4,522095
0,603000	1,404114	3,674011
0,604000	1,640167	3,627777
0,605000	1,382751	4,003448
0,606000	1,649323	4,417419
0,607000	1,420288	4,999847
0,608000	1,602631	4,999847
0,609000	1,478577	4,999847
0,610000	1,561584	4,999847
0,611000	1,531677	4,999847
0,612000	1,525269	4,780273
0,613000	1,579590	4,204407
0,614000	1,494141	3,026886
0,615000	1,622467	4,999847
0,616000	1,466064	4,108124
0,617000	1,661682	4,999847
0,618000	1,442566	4,999847
0,619000	1,697083	4,999847
0,620000	1,426544	4,999847
0,621000	1,680603	4,999847
0,622000	1,484833	4,242249
0,623000	1,635590	3,799591
0,624000	1,542053	3,934326
0,625000	1,596375	2,671661
0,626000	1,593170	4,999847
0,627000	1,561127	4,999847
0,628000	1,639862	4,999847
0,629000	1,531067	4,999847
0,630000	1,682129	4,999847
0,631000	1,504517	4,999847
0,632000	1,720734	4,861298
0,633000	1,481628	4,395905
0,634000	1,753235	4,025879
0,635000	1,488037	4,182587
0,636000	1,712494	4,086304
0,637000	1,549072	4,999847
0,638000	1,669159	4,999847
0,639000	1,605835	4,999847
0,640000	1,631317	4,999847
0,641000	1,654968	4,999847
0,642000	1,598053	4,999847
0,643000	1,700897	3,565369
0,644000	1,569366	3,918304
0,645000	1,742096	3,310547
0,646000	1,544952	4,357758
0,647000	1,779938	4,999847
0,648000	1,523590	4,999847
0,649000	1,792908	4,999847
0,650000	1,555634	4,999847
0,651000	1,746521	4,999847
0,652000	1,615906	4,999847
0,653000	1,705322	4,288177
0,654000	1,670074	3,649445
0,655000	1,669159	4,176025
0,656000	1,718903	3,824768
0,657000	1,637268	4,947052
0,658000	1,762390	4,999847
0,659000	1,609650	4,999847
0,660000	1,803589	4,999847
0,661000	1,585846	4,999847
0,662000	1,839905	4,161682
0,663000	1,566467	3,421021
0,664000	1,826782	3,761902
0,665000	1,622772	3,734894
0,666000	1,781464	4,999847
0,667000	1,681366	4,999847
0,668000	1,741943	4,999847
0,669000	1,734467	4,999847
0,670000	1,707611	4,999847
0,671000	1,782074	4,999847
0,672000	1,677094	4,999847
0,673000	1,824951	4,555206
0,674000	1,651917	2,747040
0,675000	1,864929	4,439545
0,676000	1,629791	3,853760
0,677000	1,902466	4,999847
0,678000	1,631775	4,999847
0,679000	1,866608	4,999847
0,680000	1,693268	4,999847
0,681000	1,823883	4,999847
0,682000	1,750183	4,999847
0,683000	1,786499	3,825378
0,684000	1,773224	2,652130
0,685000	1,690826	3,745880
0,686000	1,821442	4,999847
0,687000	1,711426	4,999847
0,688000	1,884613	4,999847
0,689000	1,697235	4,999847
0,690000	1,930847	4,999847
0,691000	1,677704	4,999847
0,692000	1,954803	4,802246
0,693000	1,705933	4,674225
0,694000	1,914215	3,267059
0,695000	1,767426	4,245605
0,696000	1,874542	4,517670
0,697000	1,821442	4,689636
0,698000	1,838684	4,999847
0,699000	1,871490	4,999847
0,700000	1,806488	4,999847
0,701000	1,917114	4,999847
0,702000	1,778412	4,999847
0,703000	1,964111	3,789673
0,704000	1,755371	3,250732
0,705000	2,008209	3,559875
0,706000	1,733856	4,999847
0,707000	2,007294	4,999847
0,708000	1,785126	4,999847
0,709000	1,967926	4,999847
0,710000	1,844177	4,999847
0,711000	1,933136	4,999847
0,712000	1,897736	4,999847
0,713000	1,899414	3,975067
0,714000	1,948700	2,437592
0,715000	1,870270	4,215546
0,716000	1,999359	3,496857
0,717000	1,843872	4,999847
0,718000	2,047577	4,999847
0,719000	1,820679	4,999847
0,720000	2,094116	4,999847
0,721000	1,815643	4,999847
0,722000	2,070007	4,642792
0,723000	1,812286	2,858429
0,724000	1,813202	3,387604
0,725000	1,813202	3,346252
0,726000	2,062683	4,528198
0,727000	1,872101	4,999847
0,728000	2,108765	4,999847
0,729000	1,848297	4,999847
0,730000	2,124939	4,999847
0,731000	1,880798	4,999847
0,732000	2,087097	4,999847
0,733000	1,942139	4,999847
0,734000	2,053680	3,877563
0,735000	2,001038	4,999847
0,736000	2,021484	4,031830
0,737000	2,056122	4,999847
0,738000	1,990814	4,999847
0,739000	2,107086	4,999847
0,740000	1,963501	4,999847
0,741000	2,154846	4,999847
0,742000	1,938019	4,626617
0,743000	2,193756	3,694916
0,744000	1,916199	2,888947
0,745000	2,172394	3,614044
0,746000	1,971436	4,810944
0,747000	2,129669	4,999847
0,748000	2,029266	4,999847
0,749000	2,092438	4,999847
0,750000	2,084503	4,999847
0,751000	2,058716	4,999847
0,752000	2,135925	4,999847
0,753000	2,028046	4,113770
0,754000	2,181091	2,720490
0,755000	2,000122	4,999847
0,756000	2,213745	4,574432
0,757000	1,974030	4,999847
0,758000	2,229462	4,999847
0,759000	1,974945	4,999847
0,760000	2,178345	4,999847
0,761000	2,035370	4,999847
0,762000	2,138214	4,999847
0,763000	2,093201	3,767242
0,764000	2,103577	3,276367
0,765000	2,146759	4,828491
0,766000	2,072906	4,999847
0,767000	2,192841	4,999847
0,768000	2,046356	4,999847
0,769000	1,866455	4,999847
0,770000	1,766510	4,999847
0,771000	1,723328	4,999847
0,772000	1,705017	4,999847
0,773000	1,697540	4,373016
0,774000	1,693573	2,999115
0,775000	1,691895	4,729462
0,776000	1,691132	4,312439
0,777000	1,691437	4,999847
0,778000	1,691284	4,999847
0,779000	1,691284	4,999847
0,780000	1,690979	4,999847
0,781000	1,690063	4,999847
0,782000	1,689606	4,999847
0,783000	1,689911	2,856140
0,784000	1,690369	2,650146
0,785000	1,690674	4,113922
0,786000	1,689911	4,334869
0,787000	1,625519	4,999847
0,788000	1,638947	4,999847
0,789000	1,667480	4,999847
0,790000	1,320953	4,999847
0,791000	1,118927	4,999847
0,792000	1,080780	4,999847
0,793000	1,013031	3,789673
0,794000	1,037598	3,087616
0,795000	1,003876	4,999847
0,796000	1,025696	3,582611
0,797000	1,011047	4,999847
0,798000	1,019592	4,999847
0,799000	1,019440	4,999847
0,800000	1,014252	4,999847
0,801000	1,029205	4,999847
0,802000	1,010437	4,763031
0,803000	1,038818	3,173981
0,804000	1,006470	3,648071
0,805000	1,048584	4,250946
0,806000	1,003113	4,209900
0,807000	1,057892	4,999847
0,808000	1,005554	4,999847
0,809000	1,052551	4,999847
0,810000	1,019745	4,999847
0,811000	1,045685	4,999847
0,812000	1,032715	4,999847
0,813000	1,038818	4,704437
0,814000	1,046143	3,329620
0,815000	1,032562	4,895172
0,816000	1,057892	3,475952
0,817000	1,027222	4,999847
0,818000	1,070099	4,999847
0,819000	1,021576	4,999847
0,820000	1,080780	4,999847
0,821000	1,016541	4,999847
0,822000	1,087036	4,488983
0,823000	1,025848	3,352509
0,824000	1,077118	3,235931
0,825000	1,042786	3,647003
0,826000	1,067810	4,999847
0,827000	1,059265	4,999847
0,828000	1,058502	4,999847
0,829000	1,074371	4,999847
0,830000	1,050110	4,999847
0,831000	1,088562	4,999847
0,832000	1,042633	4,999847
0,833000	1,103363	3,798676
0,834000	1,035614	3,110962
0,835000	1,116333	4,535217
0,836000	1,030426	4,237213
0,837000	1,115265	4,999847
0,838000	1,049347	4,999847
0,839000	1,101990	4,999847
0,840000	1,069489	4,999847
0,841000	1,089783	4,999847
0,842000	1,088104	4,999847
0,843000	1,078339	2,794037
0,844000	1,106415	3,933563
0,845000	1,068420	4,216614
0,846000	1,121979	4,662933
0,847000	1,058044	4,999847
0,848000	1,138153	4,999847
0,849000	1,049805	4,999847
0,850000	1,153412	4,999847
0,851000	1,051178	4,999847
0,852000	1,141205	4,999847
0,853000	1,074982	4,629822
0,854000	1,124878	3,244019
0,855000	1,097870	4,261017
0,856000	1,109772	3,600311
0,857000	1,119232	4,999847
0,858000	1,096649	4,999847
0,859000	1,139069	4,999847
0,860000	1,084442	4,999847
0,861000	1,157532	4,999847
0,862000	1,073456	4,999847
0,863000	1,174927	2,775726
0,864000	1,063080	3,572693
0,865000	1,184845	3,599548
0,866000	1,076355	4,999847
0,867000	1,164856	4,999847
0,868000	1,103363	4,999847
0,869000	1,146698	4,999847
0,870000	1,128387	4,999847
0,871000	1,129608	4,999847
0,872000	1,151733	4,916077
0,873000	1,113586	4,412689
0,874000	1,174011	2,849884
0,875000	1,100159	4,710999
0,876000	1,193695	4,620514
0,877000	1,087494	4,675598
0,878000	1,213226	4,999847
0,879000	1,076050	4,999847
0,880000	1,211243	4,999847
0,881000	1,103668	4,999847
0,882000	1,188202	4,999847
0,883000	1,133881	3,944244
0,884000	1,166840	3,356934
0,885000	1,161346	3,090363
0,886000	1,147919	4,500275
0,887000	1,186676	4,999847
0,888000	1,131134	4,999847
0,889000	1,162415	4,999847
0,890000	1,054840	4,999847
0,891000	1,207581	4,999847
0,892000	1,090393	4,638062
0,893000	1,249084	4,825745
0,894000	1,098328	4,039307
0,895000	1,235199	3,601379
0,896000	1,133575	4,674225
0,897000	1,210327	4,999847
0,898000	1,166687	4,999847
0,899000	1,187439	4,999847
0,900000	1,196136	4,999847
0,901000	1,166077	4,999847
0,902000	1,224060	4,563751
0,903000	1,147308	4,046936
0,904000	1,249237	2,965088
0,905000	1,130219	4,999847
0,906000	1,273346	4,272156
0,907000	1,115265	4,999847
0,908000	1,287994	4,999847
0,909000	1,130066	4,999847
0,910000	1,259003	4,999847
0,911000	1,167450	4,999847
0,912000	1,231232	4,999847
0,913000	1,201935	3,657379
0,914000	1,206360	2,727966
0,915000	1,233673	4,159698
0,916000	1,184235	4,627380
0,917000	1,262817	4,813995
0,918000	1,163483	4,999847
0,919000	1,290131	4,999847
0,920000	1,145325	4,999847
0,921000	1,314240	4,999847
0,922000	1,128998	4,567413
0,923000	1,313934	3,606262
0,924000	1,163177	2,097321
0,925000	1,281281	4,774323
0,926000	1,202850	4,999847
0,927000	1,251678	4,999847
0,928000	1,239624	4,999847
0,929000	1,225128	4,999847
0,930000	1,272736	4,999847
0,931000	1,201019	4,999847
0,932000	1,303558	4,999847
0,933000	1,179657	4,818420
0,934000	1,331940	2,769775
0,935000	1,160736	4,999847
0,936000	1,358032	3,754425
0,937000	1,155548	4,600677
0,938000	1,337891	4,999847
0,939000	1,199646	4,999847
0,940000	1,302643	4,999847
0,941000	1,241150	4,999847
0,942000	1,271515	4,878693
0,943000	1,279144	3,046570
0,944000	1,243896	2,879181
0,945000	1,313934	3,805542
0,946000	1,218719	4,999847
0,947000	1,345978	4,999847
0,948000	1,195984	4,999847
0,949000	1,374512	4,999847
0,950000	1,176758	4,999847
0,951000	1,396027	4,999847
0,952000	1,190948	4,999847
0,953000	1,359863	3,813782
0,954000	1,239014	2,737427
0,955000	1,323395	4,999847
0,956000	1,281586	4,320984
0,957000	1,291351	4,628601
0,958000	1,320801	4,999847
0,959000	1,262360	4,999847
0,960000	1,356506	4,999847
0,961000	1,237030	4,999847
0,962000	1,389160	4,999847
0,963000	1,214294	4,052429
0,964000	1,419525	2,020569
0,965000	1,194153	3,778076
0,966000	1,421814	4,660492
0,967000	1,231232	4,999847
0,968000	1,380768	4,999847
0,969000	1,280060	4,999847
0,970000	1,344452	4,999847
0,971000	1,324615	4,999847
0,972000	1,311493	4,999847
0,973000	1,365051	4,397430
0,974000	1,282043	3,113556
0,975000	1,401672	4,439392
0,976000	1,257019	4,199524
0,977000	1,435242	4,999847
0,978000	1,233978	4,999847
0,979000	1,466217	4,999847
0,980000	1,224518	4,999847
0,981000	1,445770	4,999847
0,982000	1,276245	4,999847
0,983000	1,403961	3,366089
0,984000	1,326447	3,051300
0,985000	1,367187	3,732605
0,986000	1,371613	4,832458
0,987000	1,334991	4,999847
0,988000	1,412354	4,999847
0,989000	1,305847	4,999847
0,990000	1,450043	4,999847
0,991000	1,272125	4,999847
0,992000	1,412354	4,999847
0,993000	1,201782	3,769073
0,994000	1,488495	2,816620
0,995000	1,260834	4,999847
0,996000	1,466675	2,734222
0,997000	1,324463	4,999847
0,998000	1,428375	4,999847
0,999000	1,376038	4,999847

