LabVIEW Measurement	
Writer_Version	2
Reader_Version	2
Separator	Tab
Decimal_Separator	,
Multi_Headings	Yes
X_Columns	One
Time_Pref	Absolute
Operator	d.nicolai
Date	2023/11/09
Time	15:52:34,4435127999997708487
***End_of_Header***	
	
Channels	2		
Samples	1000	1000	
Date	2023/11/09	2023/11/09	
Time	15:52:38,667512299999654863	15:52:38,667512299999654863	
Y_Unit_Label	Volts	Volts	
X_Dimension	Time	Time	
X0	0,0000000000000000E+0	0,0000000000000000E+0	
Delta_X	0,001000	0,001000	
***End_of_Header***			
X_Value	powebox	triggerbox	Comment
0,000000	1,813507	0,928040
0,001000	1,813049	4,525909
0,002000	2,092285	4,574280
0,003000	1,842957	4,999847
0,004000	2,121887	4,999847
0,005000	1,862030	4,999847
0,006000	2,083740	4,999847
0,007000	1,922913	4,999847
0,008000	2,049408	4,985199
0,009000	1,981964	4,637146
0,010000	2,016907	2,959900
0,011000	2,036591	4,481354
0,012000	1,986847	4,004517
0,013000	2,088776	4,999847
0,014000	1,959076	4,999847
0,015000	2,137451	4,999847
0,016000	1,932983	4,999847
0,017000	2,179260	4,999847
0,018000	1,907043	4,983215
0,019000	2,173767	3,227997
0,020000	1,953583	3,814850
0,021000	2,130890	4,598846
0,022000	2,012482	4,999847
0,023000	2,093201	4,999847
0,024000	2,067413	4,999847
0,025000	2,059174	4,999847
0,026000	2,119751	4,999847
0,027000	2,028198	4,999847
0,028000	2,167511	4,999847
0,029000	1,999207	3,472443
0,030000	2,204742	4,185028
0,031000	1,972656	4,132538
0,032000	2,227173	4,594574
0,033000	1,961212	4,825592
0,034000	2,184753	4,999847
0,035000	2,020111	4,999847
0,036000	2,142487	4,999847
0,037000	2,077637	4,999847
0,038000	2,106628	4,349213
0,039000	2,132721	2,870026
0,040000	2,075500	2,976379
0,041000	2,181244	4,388580
0,042000	2,047272	4,487152
0,043000	2,216644	4,999847
0,044000	1,948090	4,999847
0,045000	1,766357	4,999847
0,046000	1,722260	4,999847
0,047000	1,703949	4,999847
0,048000	1,695709	4,999847
0,049000	1,692047	4,624329
0,050000	1,690369	2,731171
0,051000	1,690063	4,781952
0,052000	1,689606	3,199463
0,053000	1,689148	4,999847
0,054000	1,689301	4,999847
0,055000	1,689301	4,999847
0,056000	1,688690	4,999847
0,057000	1,688843	4,999847
0,058000	1,688538	4,736176
0,059000	1,688690	3,734131
0,060000	1,689301	2,301941
0,061000	1,688232	4,694672
0,062000	1,688538	4,999847
0,063000	1,688538	4,999847
0,064000	1,688690	4,999847
0,065000	1,341553	4,999847
0,066000	1,128387	4,999847
0,067000	1,082001	4,999847
0,068000	1,013794	4,999847
0,069000	1,040039	3,793793
0,070000	0,999298	3,170319
0,071000	1,027069	4,999847
0,072000	1,006165	3,515320
0,073000	1,021271	4,999847
0,074000	1,016998	4,999847
0,075000	1,017761	4,999847
0,076000	1,026917	4,999847
0,077000	1,013184	4,999847
0,078000	1,036224	4,762878
0,079000	1,008759	3,732147
0,080000	1,045990	3,697052
0,081000	1,005402	3,749237
0,082000	1,055603	4,502106
0,083000	1,002502	4,999847
0,084000	1,057129	4,999847
0,085000	1,015015	4,999847
0,086000	1,049652	4,999847
0,087000	1,028748	4,999847
0,088000	1,042633	4,999847
0,089000	1,041412	3,360138
0,090000	1,036224	4,032898
0,091000	1,054077	3,600159
0,092000	1,030273	3,519897
0,093000	1,066589	4,704590
0,094000	1,024323	4,999847
0,095000	1,078033	4,999847
0,096000	1,018982	4,999847
0,097000	1,088715	4,999847
0,098000	1,019745	4,999847
0,099000	1,082764	3,184967
0,100000	1,036835	4,243164
0,101000	1,072388	4,069214
0,102000	1,053314	4,999847
0,103000	1,062927	4,999847
0,104000	1,069031	4,999847
0,105000	1,054230	4,999847
0,106000	1,083832	4,999847
0,107000	1,046295	4,999847
0,108000	1,098633	4,999847
0,109000	1,039429	4,362183
0,110000	1,112671	2,893524
0,111000	1,032562	4,395447
0,112000	1,121979	2,808685
0,113000	1,042023	4,999847
0,114000	1,109009	4,999847
0,115000	1,062775	4,999847
0,116000	1,096039	4,999847
0,117000	1,082001	4,999847
0,118000	1,083527	4,859009
0,119000	1,100616	2,736206
0,120000	1,073761	3,729706
0,121000	1,117249	3,196869
0,122000	1,063538	4,999847
0,123000	1,134186	4,999847
0,124000	1,053925	4,999847
0,125000	1,149139	4,999847
0,126000	1,046143	4,999847
0,127000	1,149597	4,999847
0,128000	1,066437	4,984741
0,129000	1,132660	3,704376
0,130000	1,090088	4,999847
0,131000	1,117249	3,501740
0,132000	1,111908	4,253082
0,133000	1,103058	4,917908
0,134000	1,132812	4,999847
0,135000	1,091156	4,999847
0,136000	1,152496	4,999847
0,137000	1,080017	4,999847
0,138000	1,170959	4,684601
0,139000	1,069183	3,823395
0,140000	1,187439	2,750549
0,141000	1,066132	3,569489
0,142000	1,175079	4,769135
0,143000	1,093597	4,999847
0,144000	1,155090	4,999847
0,145000	1,119537	4,999847
0,146000	1,072693	4,999847
0,147000	1,059418	4,999847
0,148000	1,080627	4,999847
0,149000	1,149597	4,396820
0,150000	1,099548	3,193817
0,151000	1,184692	4,661713
0,152000	1,092529	3,535309
0,153000	1,206055	4,999847
0,154000	1,080780	4,999847
0,155000	1,220856	4,999847
0,156000	1,091309	4,999847
0,157000	1,198578	4,999847
0,158000	1,122589	4,123383
0,159000	1,176453	3,938293
0,160000	1,151428	2,472992
0,161000	1,157074	4,857941
0,162000	1,178741	4,999847
0,163000	1,139069	4,999847
0,164000	1,203308	4,999847
0,165000	1,123810	4,999847
0,166000	1,227112	4,999847
0,167000	1,108551	4,999847
0,168000	1,248474	4,999847
0,169000	1,096497	4,889374
0,170000	1,250916	2,860260
0,171000	1,122589	3,899231
0,172000	1,223755	3,479919
0,173000	1,156769	4,439392
0,174000	1,199493	4,999847
0,175000	1,187744	4,999847
0,176000	1,177216	4,999847
0,177000	1,216278	4,999847
0,178000	1,157532	4,906769
0,179000	1,242828	4,517059
0,180000	1,140137	2,266846
0,181000	1,267395	4,173279
0,182000	1,123657	4,999847
0,183000	1,290131	4,999847
0,184000	1,118011	4,999847
0,185000	1,274719	4,999847
0,186000	1,155090	4,999847
0,187000	1,244965	4,999847
0,188000	1,190338	4,999847
0,189000	1,219025	4,972687
0,190000	1,222992	4,081116
0,191000	1,194458	3,238831
0,192000	1,254120	3,898773
0,193000	1,173706	4,785309
0,194000	1,282349	4,999847
0,195000	1,155243	4,999847
0,196000	1,308594	4,999847
0,197000	1,138306	4,999847
0,198000	1,328430	4,999847
0,199000	1,148224	3,134460
0,200000	1,297913	4,636841
0,201000	1,189728	2,310333
0,202000	1,266327	4,999847
0,203000	1,228027	4,999847
0,204000	1,238556	4,999847
0,205000	1,262970	4,999847
0,206000	1,213684	4,999847
0,207000	1,294403	4,999847
0,208000	1,191254	4,801483
0,209000	1,324158	4,349518
0,210000	1,170349	2,076111
0,211000	1,350555	4,999847
0,212000	1,152496	4,578857
0,213000	1,355438	4,999847
0,214000	1,184082	4,999847
0,215000	1,319580	4,999847
0,216000	1,227570	4,999847
0,217000	1,286926	4,999847
0,218000	1,267395	4,383392
0,219000	1,257477	4,029999
0,220000	1,303253	3,293762
0,221000	1,231537	4,449158
0,222000	1,336670	4,999847
0,223000	1,207886	4,999847
0,224000	1,366730	4,999847
0,225000	1,187286	4,999847
0,226000	1,394958	4,999847
0,227000	1,176605	4,999847
0,228000	1,378784	4,999847
0,229000	1,222534	4,948425
0,230000	1,340942	2,787170
0,231000	1,267548	4,449615
0,232000	1,306763	4,290924
0,233000	1,308594	4,572144
0,234000	1,276855	4,999847
0,235000	1,344452	4,999847
0,236000	1,248627	4,999847
0,237000	1,379242	4,999847
0,238000	1,225739	4,645844
0,239000	1,411133	3,042603
0,240000	1,204681	4,203796
0,241000	1,437531	3,704987
0,242000	1,213837	4,999847
0,243000	1,400604	4,999847
0,244000	1,263885	4,999847
0,245000	1,362305	4,999847
0,246000	1,310577	4,999847
0,247000	1,327820	4,999847
0,248000	1,324005	4,999847
0,249000	1,220398	4,482880
0,250000	1,296997	4,254608
0,251000	1,230316	3,139343
0,252000	1,409454	3,261871
0,253000	1,239319	4,999847
0,254000	1,454315	4,999847
0,255000	1,222992	4,999847
0,256000	1,465759	4,999847
0,257000	1,258087	4,999847
0,258000	1,423645	4,450531
0,259000	1,309814	3,325958
0,260000	1,385040	3,627777
0,261000	1,356659	3,658600
0,262000	1,349335	4,999847
0,263000	1,398926	4,999847
0,264000	1,319885	4,999847
0,265000	1,438599	4,999847
0,266000	1,293488	4,999847
0,267000	1,474152	4,999847
0,268000	1,269989	4,999847
0,269000	1,507111	4,315491
0,270000	1,254425	3,106079
0,271000	1,492767	4,363403
0,272000	1,307373	3,586884
0,273000	1,448975	4,955902
0,274000	1,360016	4,999847
0,275000	1,409912	4,999847
0,276000	1,406860	4,999847
0,277000	1,376190	4,999847
0,278000	1,450348	4,999847
0,279000	1,346588	2,793121
0,280000	1,490021	3,684845
0,281000	1,320496	3,400574
0,282000	1,525879	4,999847
0,283000	1,296539	4,999847
0,284000	1,556854	4,999847
0,285000	1,303253	4,999847
0,286000	1,518402	4,999847
0,287000	1,361084	4,999847
0,288000	1,475677	4,999847
0,289000	1,413727	3,721924
0,290000	1,438293	2,868042
0,291000	1,460876	4,307251
0,292000	1,403961	3,791962
0,293000	1,503296	4,865265
0,294000	1,375732	4,999847
0,295000	1,543427	4,999847
0,296000	1,350861	4,999847
0,297000	1,579285	4,999847
0,298000	1,328278	4,999847
0,299000	1,591492	3,382416
0,300000	1,358490	2,424011
0,301000	1,545258	4,498596
0,302000	1,416626	4,999847
0,303000	1,503754	4,999847
0,304000	1,468811	4,999847
0,305000	1,467285	4,999847
0,306000	1,516266	4,999847
0,307000	1,436615	4,999847
0,308000	1,560364	4,999847
0,309000	1,409454	3,959351
0,310000	1,599426	3,820038
0,311000	1,385803	4,093628
0,312000	1,634979	3,907623
0,313000	1,366577	4,999847
0,314000	1,623993	4,999847
0,315000	1,422882	4,999847
0,316000	1,577911	4,999847
0,317000	1,479187	4,999847
0,318000	1,537933	4,700623
0,319000	1,530609	3,591309
0,320000	1,503143	2,877502
0,321000	1,577454	4,503784
0,322000	1,472931	4,999847
0,323000	1,619415	4,999847
0,324000	1,446381	4,999847
0,325000	1,657562	4,999847
0,326000	1,423187	4,999847
0,327000	1,692200	4,999847
0,328000	1,425781	4,999847
0,329000	1,655121	4,411316
0,330000	1,486511	3,109894
0,331000	1,610870	3,945007
0,332000	1,541748	4,409180
0,333000	1,572571	4,999847
0,334000	1,592255	4,999847
0,335000	1,539612	4,999847
0,336000	1,637268	4,999847
0,337000	1,510162	4,999847
0,338000	1,678162	4,348145
0,339000	1,484985	3,031006
0,340000	1,715546	3,767700
0,341000	1,463013	3,452148
0,342000	1,733704	4,999847
0,343000	1,491394	4,999847
0,344000	1,687317	4,999847
0,345000	1,551056	4,999847
0,346000	1,645813	4,999847
0,347000	1,604767	4,999847
0,348000	1,608124	4,618378
0,349000	1,653290	4,395752
0,350000	1,575775	4,641113
0,351000	1,626892	4,250946
0,352000	1,475067	3,631592
0,353000	1,706390	4,999847
0,354000	1,511230	4,999847
0,355000	1,768951	4,999847
0,356000	1,501617	4,999847
0,357000	1,766205	4,999847
0,358000	1,557159	4,999847
0,359000	1,721039	3,214722
0,360000	1,616211	3,832245
0,361000	1,681519	3,778687
0,362000	1,669006	4,981079
0,363000	1,646576	4,999847
0,364000	1,716461	4,999847
0,365000	1,615753	4,999847
0,366000	1,759796	4,999847
0,367000	1,589203	4,999847
0,368000	1,799164	4,999847
0,369000	1,566162	4,333344
0,370000	1,834259	3,452454
0,371000	1,563721	4,015808
0,372000	1,800690	4,248505
0,373000	1,624603	4,999847
0,374000	1,757050	4,999847
0,375000	1,681519	4,999847
0,376000	1,718292	4,999847
0,377000	1,732941	4,999847
0,378000	1,684875	4,402924
0,379000	1,778717	3,754578
0,380000	1,656036	3,257446
0,381000	1,820831	2,771301
0,382000	1,630707	4,999847
0,383000	1,859283	4,999847
0,384000	1,609192	4,999847
0,385000	1,883240	4,999847
0,386000	1,631775	4,999847
0,387000	1,838226	4,999847
0,388000	1,692963	4,999847
0,389000	1,796722	3,999939
0,390000	1,748505	2,633057
0,391000	1,760406	4,584351
0,392000	1,798401	3,493805
0,393000	1,728973	4,999847
0,394000	1,843567	4,999847
0,395000	1,701660	4,999847
0,396000	1,885681	4,999847
0,397000	1,677399	4,999847
0,398000	1,925659	4,542694
0,399000	1,656342	3,401489
0,400000	1,927338	3,520508
0,401000	1,705627	4,168549
0,402000	1,885071	4,421692
0,403000	1,764984	4,999847
0,404000	1,846313	4,999847
0,405000	1,818542	4,999847
0,406000	1,811066	4,999847
0,407000	1,866302	4,999847
0,408000	1,780853	4,999847
0,409000	1,912231	4,999847
0,410000	1,753693	3,837891
0,411000	1,956024	4,662933
0,412000	1,730652	3,709869
0,413000	1,999512	4,999847
0,414000	1,723022	4,999847
0,415000	1,977997	4,999847
0,416000	1,783752	4,999847
0,417000	1,939087	4,999847
0,418000	1,840057	4,999847
0,419000	1,903687	2,829132
0,420000	1,892548	2,171021
0,421000	1,870575	4,075165
0,422000	1,941833	4,999847
0,423000	1,840668	4,999847
0,424000	1,991119	4,999847
0,425000	1,815186	4,999847
0,426000	2,038269	4,999847
0,427000	1,792450	4,999847
0,428000	2,072449	4,999847
0,429000	1,806335	4,779816
0,430000	2,035370	3,055878
0,431000	1,866455	4,412384
0,432000	2,001038	4,100952
0,433000	1,925049	4,999847
0,434000	1,969604	4,999847
0,435000	1,812744	4,999847
0,436000	1,813354	4,999847
0,437000	1,813660	4,999847
0,438000	1,813965	4,999847
0,439000	2,109222	2,778931
0,440000	1,830292	2,922821
0,441000	2,101898	3,881531
0,442000	1,885681	4,999847
0,443000	2,065430	4,999847
0,444000	1,945648	4,999847
0,445000	2,032166	4,999847
0,446000	2,003326	4,999847
0,447000	2,001038	4,999847
0,448000	2,057800	4,999847
0,449000	1,972656	3,607178
0,450000	2,109070	3,329620
0,451000	1,945343	3,228149
0,452000	2,154388	3,270111
0,453000	1,870270	4,911499
0,454000	2,097321	4,999847
0,455000	1,827240	4,999847
0,456000	2,111053	4,999847
0,457000	1,951447	4,999847
0,458000	2,103271	4,567566
0,459000	2,029266	3,988800
0,460000	2,073669	2,944946
0,461000	2,087555	4,204865
0,462000	2,041779	4,963379
0,463000	2,138519	4,999847
0,464000	2,013397	4,999847
0,465000	2,183380	4,999847
0,466000	1,985626	4,999847
0,467000	2,214355	4,999847
0,468000	1,959839	4,999847
0,469000	2,212219	4,668121
0,470000	1,985168	2,745209
0,471000	2,164307	4,948273
0,472000	2,044830	4,476776
0,473000	2,125549	4,999847
0,474000	2,101135	4,999847
0,475000	2,091980	4,999847
0,476000	2,154236	4,999847
0,477000	2,060699	4,999847
0,478000	2,197266	4,767303
0,479000	2,033081	3,534546
0,480000	2,224274	3,384857
0,481000	2,007904	3,927765
0,482000	1,841583	4,999847
0,483000	1,754761	4,999847
0,484000	1,718445	4,999847
0,485000	1,702423	4,999847
0,486000	1,695862	4,999847
0,487000	1,692200	4,999847
0,488000	1,690674	4,999847
0,489000	1,689911	4,618530
0,490000	1,690521	2,563629
0,491000	1,690521	4,312134
0,492000	1,689758	3,272705
0,493000	1,689606	4,999847
0,494000	1,689148	4,999847
0,495000	1,688538	4,999847
0,496000	1,689148	4,999847
0,497000	1,688995	4,896545
0,498000	1,688385	4,999847
0,499000	1,688538	3,172913
0,500000	1,689453	4,283295
0,501000	1,689148	3,650360
0,502000	1,478119	4,242096
0,503000	1,209412	4,999847
0,504000	1,092987	4,999847
0,505000	1,040192	4,999847
0,506000	1,030121	4,999847
0,507000	1,007996	4,999847
0,508000	1,027985	4,999847
0,509000	1,000061	3,450775
0,510000	1,033783	3,865509
0,511000	0,996246	4,015198
0,512000	1,042633	2,763824
0,513000	0,997467	3,963165
0,514000	1,040192	4,999847
0,515000	1,009827	4,999847
0,516000	1,034546	4,999847
0,517000	1,021576	4,999847
0,518000	1,028442	4,999847
0,519000	1,033478	2,922516
0,520000	1,024017	2,930908
0,521000	1,044617	4,005127
0,522000	1,018982	4,279327
0,523000	1,054840	4,999847
0,524000	1,014862	4,999847
0,525000	1,066437	4,999847
0,526000	1,009979	4,999847
0,527000	1,072998	4,999847
0,528000	1,016235	4,999847
0,529000	1,064758	3,940887
0,530000	1,031799	2,689362
0,531000	1,056824	4,999847
0,532000	1,046143	3,107758
0,533000	1,048431	4,779358
0,534000	1,060028	4,999847
0,535000	1,041565	4,999847
0,536000	1,073608	4,999847
0,537000	1,034851	4,999847
0,538000	1,086121	4,999847
0,539000	1,028900	3,260040
0,540000	1,098938	4,670258
0,541000	1,023254	3,556061
0,542000	1,100922	4,487457
0,543000	1,039124	4,999847
0,544000	1,089172	4,999847
0,545000	1,057434	4,999847
0,546000	1,078949	4,999847
0,547000	1,073761	4,999847
0,548000	1,068420	4,999847
0,549000	1,091461	3,865967
0,550000	1,059875	3,408508
0,551000	1,107178	4,881897
0,552000	1,051483	3,471680
0,553000	1,121979	4,999847
0,554000	1,042633	4,999847
0,555000	1,135406	4,999847
0,556000	0,981598	4,999847
0,557000	1,044922	4,999847
0,558000	1,015930	4,097443
0,559000	1,094360	2,772064
0,560000	1,076965	3,336029
0,561000	1,095886	3,945312
0,562000	1,101837	4,999847
0,563000	1,085510	4,999847
0,564000	1,122437	4,999847
0,565000	1,075592	4,999847
0,566000	1,139832	4,999847
0,567000	1,065216	4,999847
0,568000	1,156464	4,999847
0,569000	1,055756	3,378754
0,570000	1,170197	3,993530
0,571000	1,065216	2,782745
0,572000	1,153564	3,256531
0,573000	1,090851	4,999847
0,574000	1,136169	4,999847
0,575000	1,114807	4,999847
0,576000	1,120300	4,999847
0,577000	1,136932	4,999847
0,578000	1,106110	4,330750
0,579000	1,157837	3,237610
0,580000	1,093140	2,824402
0,581000	1,177521	3,577728
0,582000	1,081390	4,999847
0,583000	1,195831	4,999847
0,584000	1,070099	4,999847
0,585000	1,198425	4,999847
0,586000	1,091766	4,999847
0,587000	1,176910	4,999847
0,588000	1,119995	4,999847
0,589000	1,156921	4,264526
0,590000	1,146393	3,843384
0,591000	1,139069	4,776001
0,592000	1,170654	2,543488
0,593000	1,123962	4,999847
0,594000	1,194305	4,999847
0,595000	1,108551	4,999847
0,596000	1,214447	4,999847
0,597000	1,094818	4,999847
0,598000	1,234894	4,043121
0,599000	1,089020	3,909607
0,600000	1,224060	3,567810
0,601000	1,121368	3,715210
0,602000	1,199799	4,348297
0,603000	1,152191	4,999847
0,604000	1,177826	4,999847
0,605000	1,180420	4,999847
0,606000	1,157074	4,999847
0,607000	1,207428	4,999847
0,608000	1,139832	4,299316
0,609000	1,232300	3,717194
0,610000	1,123810	2,627411
0,611000	1,254578	4,540405
0,612000	1,109467	3,536987
0,613000	1,273956	4,999847
0,614000	1,117096	4,999847
0,615000	1,247559	4,999847
0,616000	1,153107	4,999847
0,617000	1,220703	4,999847
0,618000	1,186218	4,352722
0,619000	1,196899	4,029388
0,620000	1,217194	4,295197
0,621000	1,175537	3,465118
0,622000	1,245422	4,999847
0,623000	1,156464	4,999847
0,624000	1,271667	4,999847
0,625000	1,138611	4,999847
0,626000	1,295929	4,999847
0,627000	1,122742	4,999847
0,628000	1,301575	4,999847
0,629000	1,149292	4,179993
0,630000	1,269379	3,934174
0,631000	1,187286	3,896027
0,632000	1,241150	3,631287
0,633000	1,222382	4,999847
0,634000	1,198883	4,999847
0,635000	1,255035	4,999847
0,636000	1,192780	4,999847
0,637000	1,284943	4,999847
0,638000	1,172180	4,723511
0,639000	1,313477	3,534393
0,640000	1,152802	2,797394
0,641000	1,336975	3,655548
0,642000	1,140900	4,999847
0,643000	1,324310	4,999847
0,644000	1,183167	4,999847
0,645000	1,290894	4,999847
0,646000	1,222992	4,999847
0,647000	1,259613	4,999847
0,648000	1,259613	4,699097
0,649000	1,232605	4,442444
0,650000	1,293793	3,342133
0,651000	1,208496	4,139862
0,652000	1,324921	4,543457
0,653000	1,186829	4,999847
0,654000	1,353455	4,999847
0,655000	1,167297	4,999847
0,656000	1,378937	4,999847
0,657000	1,173859	4,999847
0,658000	1,282501	4,075165
0,659000	1,173248	4,439850
0,660000	1,293182	3,014832
0,661000	1,255646	3,685608
0,662000	1,277618	4,999847
0,663000	1,301117	4,999847
0,664000	1,252289	4,999847
0,665000	1,336823	4,999847
0,666000	1,227875	4,999847
0,667000	1,369629	4,999847
0,668000	1,205597	4,873810
0,669000	1,399384	4,531097
0,670000	1,184845	3,885651
0,671000	1,408844	3,512573
0,672000	1,213531	4,556885
0,673000	1,369171	4,075012
0,674000	1,261597	4,999847
0,675000	1,333160	4,999847
0,676000	1,305389	4,999847
0,677000	1,301117	4,999847
0,678000	1,345825	4,455719
0,679000	1,272736	3,959045
0,680000	1,381836	3,662720
0,681000	1,247253	2,652740
0,682000	1,415253	4,931030
0,683000	1,224518	4,999847
0,684000	1,445923	4,999847
0,685000	1,208038	4,999847
0,686000	1,433105	4,999847
0,687000	1,256866	4,999847
0,688000	1,392212	4,999847
0,689000	1,306000	4,875488
0,690000	1,355591	2,537537
0,691000	1,351013	4,999847
0,692000	1,322937	3,370972
0,693000	1,391449	4,053192
0,694000	1,293793	4,999847
0,695000	1,428680	4,999847
0,696000	1,268616	4,999847
0,697000	1,462097	4,999847
0,698000	1,245880	4,624176
0,699000	1,493073	4,306793
0,700000	1,250000	3,490753
0,701000	1,457214	3,509827
0,702000	1,303558	4,999847
0,703000	1,415405	4,999847
0,704000	1,353912	4,999847
0,705000	1,379395	4,999847
0,706000	1,399231	4,999847
0,707000	1,347198	4,999847
0,708000	1,440125	4,999847
0,709000	1,318512	4,263611
0,710000	1,477203	2,864685
0,711000	1,293488	4,999847
0,712000	1,511993	3,532410
0,713000	1,271210	4,999847
0,714000	1,527252	4,999847
0,715000	1,299744	4,999847
0,716000	1,482391	4,999847
0,717000	1,354828	4,999847
0,718000	1,441956	4,999847
0,719000	1,404572	3,789978
0,720000	1,405182	3,622589
0,721000	1,450195	4,313812
0,722000	1,373444	4,999847
0,723000	1,491699	4,999847
0,724000	1,345825	4,999847
0,725000	1,529236	4,999847
0,726000	1,321106	4,999847
0,727000	1,563263	4,999847
0,728000	1,300354	4,999847
0,729000	1,554108	4,054413
0,730000	1,354218	3,146820
0,731000	1,509094	4,991150
0,732000	1,409454	3,634491
0,733000	1,468964	4,999847
0,734000	1,458740	4,999847
0,735000	1,434021	4,999847
0,736000	1,504364	4,999847
0,737000	1,403656	4,999847
0,738000	1,545563	4,763031
0,739000	1,377411	3,299713
0,740000	1,582794	3,039703
0,741000	1,353760	4,487610
0,742000	1,616974	4,578094
0,743000	1,354218	4,999847
0,744000	1,583710	4,999847
0,745000	1,413422	4,999847
0,746000	1,539154	4,999847
0,747000	1,467590	4,999847
0,748000	1,500702	4,999847
0,749000	1,517944	3,920135
0,750000	1,467590	3,105011
0,751000	1,561584	4,955444
0,752000	1,437836	3,149567
0,753000	1,602783	4,829865
0,754000	1,412201	4,999847
0,755000	1,639557	4,999847
0,756000	1,390686	4,999847
0,757000	1,660004	4,999847
0,758000	1,416016	4,701080
0,759000	1,613464	3,360443
0,760000	1,449432	2,734070
0,761000	1,483154	3,600159
0,762000	1,430359	4,999847
0,763000	1,493530	4,999847
0,764000	1,559753	4,999847
0,765000	1,495056	4,999847
0,766000	1,617584	4,999847
0,767000	1,473236	4,999847
0,768000	1,660614	4,999847
0,769000	1,449738	3,976746
0,770000	1,697388	3,547821
0,771000	1,429596	4,590149
0,772000	1,692657	3,803711
0,773000	1,481476	4,999847
0,774000	1,646881	4,999847
0,775000	1,538849	4,999847
0,776000	1,606293	4,999847
0,777000	1,591339	4,999847
0,778000	1,570435	4,311523
0,779000	1,637726	3,111877
0,780000	1,540070	3,445129
0,781000	1,682129	3,125000
0,782000	1,514130	4,932251
0,783000	1,718750	4,999847
0,784000	1,489563	4,999847
0,785000	1,755066	4,999847
0,786000	1,485443	4,999847
0,787000	1,724396	4,999847
0,788000	1,546021	4,891052
0,789000	1,680756	3,892822
0,790000	1,603241	4,915314
0,791000	1,641846	4,692078
0,792000	1,653595	3,155670
0,793000	1,607971	4,999847
0,794000	1,699829	4,999847
0,795000	1,578674	4,999847
0,796000	1,741333	4,999847
0,797000	1,552887	4,999847
0,798000	1,779480	4,618530
0,799000	1,530609	3,044739
0,800000	1,803894	4,143524
0,801000	1,552582	3,087158
0,802000	1,758881	4,999847
0,803000	1,613617	4,999847
0,804000	1,717377	4,999847
0,805000	1,668396	4,999847
0,806000	1,680450	4,999847
0,807000	1,718445	4,999847
0,808000	1,648254	4,869385
0,809000	1,763763	4,691620
0,810000	1,620178	3,031158
0,811000	1,804047	4,913788
0,812000	1,595612	3,304749
0,813000	1,841278	4,999847
0,814000	1,574249	4,999847
0,815000	1,840515	4,999847
0,816000	1,621246	4,999847
0,817000	1,794891	4,999847
0,818000	1,680450	4,999847
0,819000	1,754608	4,375916
0,820000	1,734314	3,393250
0,821000	1,719818	3,717499
0,822000	1,782074	4,999847
0,823000	1,688995	4,999847
0,824000	1,826172	4,999847
0,825000	1,662903	4,999847
0,826000	1,865692	4,999847
0,827000	1,639557	4,999847
0,828000	1,904144	4,999847
0,829000	1,630707	4,739838
0,830000	1,880951	3,046265
0,831000	1,691284	3,972015
0,832000	1,835937	4,049530
0,833000	1,748657	4,999847
0,834000	1,798859	4,999847
0,835000	1,801605	4,999847
0,836000	1,765442	4,999847
0,837000	1,847992	4,999847
0,838000	1,735992	4,650879
0,839000	1,890717	3,808289
0,840000	1,709900	2,938843
0,841000	1,933289	3,735199
0,842000	1,689453	4,999847
0,843000	1,967010	4,999847
0,844000	1,704865	4,999847
0,845000	1,928101	4,999847
0,846000	1,765137	4,999847
0,847000	1,888275	4,999847
0,848000	1,821747	4,867249
0,849000	1,852570	4,521179
0,850000	1,871643	3,276978
0,851000	1,820374	4,207458
0,852000	1,918793	3,544159
0,853000	1,790771	4,999847
0,854000	1,963959	4,999847
0,855000	1,765747	4,999847
0,856000	2,009583	4,999847
0,857000	1,745605	4,999847
0,858000	2,022095	3,934326
0,859000	1,785736	3,768463
0,860000	1,982269	4,074402
0,861000	1,843872	3,756866
0,862000	1,947632	4,793854
0,863000	1,835937	4,999847
0,864000	1,850281	4,999847
0,865000	1,920013	4,999847
0,866000	1,865540	4,999847
0,867000	1,992340	4,999847
0,868000	1,851807	4,419708
0,869000	2,047577	4,160309
0,870000	1,832123	3,256989
0,871000	2,096405	4,310150
0,872000	1,811371	4,335632
0,873000	1,811523	4,999847
0,874000	1,811829	4,999847
0,875000	1,812897	4,999847
0,876000	1,969757	4,999847
0,877000	1,953430	4,999847
0,878000	2,020721	4,999847
0,879000	1,923828	3,580475
0,880000	2,070923	3,384857
0,881000	1,898804	3,036804
0,882000	2,119598	4,999847
0,883000	1,875153	4,999847
0,884000	2,153015	4,999847
0,885000	1,889191	4,999847
0,886000	2,115784	4,999847
0,887000	1,950836	4,999847
0,888000	2,079468	4,999847
0,889000	2,008514	4,244385
0,890000	2,044983	2,954559
0,891000	2,062836	4,441376
0,892000	2,013550	3,945465
0,893000	2,114868	4,999847
0,894000	1,984100	4,999847
0,895000	2,161407	4,999847
0,896000	1,957550	4,999847
0,897000	2,197876	4,999847
0,898000	1,931915	4,999847
0,899000	2,190247	3,406219
0,900000	1,970062	2,725677
0,901000	2,144928	3,690643
0,902000	2,028503	4,999847
0,903000	2,106171	4,999847
0,904000	2,084503	4,999847
0,905000	2,072296	4,999847
0,906000	2,136688	4,999847
0,907000	2,041321	4,999847
0,908000	2,182007	4,999847
0,909000	2,013245	4,571228
0,910000	2,214813	2,441559
0,911000	1,987762	4,569702
0,912000	2,232056	4,278717
0,913000	1,971588	4,874878
0,914000	2,190704	4,999847
0,915000	2,030640	4,999847
0,916000	2,148743	4,999847
0,917000	2,089844	4,999847
0,918000	2,114105	4,638519
0,919000	1,909485	4,108124
0,920000	1,785889	3,468323
0,921000	1,730957	3,283997
0,922000	1,706848	4,999847
0,923000	1,696777	4,999847
0,924000	1,693420	4,999847
0,925000	1,691437	4,999847
0,926000	1,690674	4,999847
0,927000	1,690674	4,999847
0,928000	1,690063	4,999847
0,929000	1,689148	4,144440
0,930000	1,688995	4,014435
0,931000	1,688690	3,379364
0,932000	1,688995	3,608093
0,933000	1,688995	4,790039
0,934000	1,689301	4,999847
0,935000	1,688843	4,999847
0,936000	1,688080	4,999847
0,937000	1,688690	4,999847
0,938000	1,689148	4,999847
0,939000	1,689301	3,303070
0,940000	1,398163	2,978516
0,941000	1,161499	4,999847
0,942000	1,087646	4,877625
0,943000	1,025238	4,999847
0,944000	1,039429	4,999847
0,945000	0,999451	4,999847
0,946000	1,037292	4,999847
0,947000	0,995026	4,999847
0,948000	1,034851	4,999847
0,949000	1,004944	4,999847
0,950000	1,029205	2,673035
0,951000	1,015930	4,723206
0,952000	1,023865	3,559570
0,953000	1,026459	4,999847
0,954000	1,018829	4,999847
0,955000	1,035767	4,999847
0,956000	1,014557	4,999847
0,957000	1,047516	4,999847
0,958000	1,011047	4,388733
0,959000	1,057587	4,245148
0,960000	1,007080	2,389374
0,961000	1,065369	4,062805
0,962000	1,010895	4,999847
0,963000	1,058502	4,999847
0,964000	1,025543	4,999847
0,965000	1,010742	4,999847
0,966000	0,942688	4,999847
0,967000	0,977783	4,999847
0,968000	1,026154	4,999847
0,969000	1,026764	4,037933
0,970000	1,061859	3,301697
0,971000	1,029510	4,773254
0,972000	1,076965	4,106293
0,973000	1,024933	4,999847
0,974000	1,089478	4,999847
0,975000	1,019592	4,999847
0,976000	1,094971	4,999847
0,977000	1,032410	4,999847
0,978000	1,083984	4,192047
0,979000	1,050568	3,126831
0,980000	1,073608	2,915649
0,981000	1,067352	3,580170
0,982000	1,064148	4,999847
0,983000	1,083069	4,999847
0,984000	1,055603	4,999847
0,985000	1,098175	4,999847
0,986000	1,047668	4,999847
0,987000	1,112671	4,999847
0,988000	1,040039	4,999847
0,989000	1,126556	4,081726
0,990000	1,036377	3,098297
0,991000	1,122894	4,999847
0,992000	1,056824	3,092346
0,993000	1,108398	4,999847
0,994000	1,078033	4,999847
0,995000	1,096039	4,999847
0,996000	1,097107	4,999847
0,997000	1,083679	4,999847
0,998000	1,115570	4,999847
0,999000	1,073456	3,780975

