LabVIEW Measurement	
Writer_Version	2
Reader_Version	2
Separator	Tab
Decimal_Separator	,
Multi_Headings	Yes
X_Columns	One
Time_Pref	Absolute
Operator	d.nicolai
Date	2023/11/09
Time	15:52:34,4435127999997708487
***End_of_Header***	
	
Channels	2		
Samples	1000	1000	
Date	2023/11/09	2023/11/09	
Time	15:52:42,8685121999995507865	15:52:42,8685121999995507865	
Y_Unit_Label	Volts	Volts	
X_Dimension	Time	Time	
X0	0,0000000000000000E+0	0,0000000000000000E+0	
Delta_X	0,001000	0,001000	
***End_of_Header***			
X_Value	powebox	triggerbox	Comment
0,000000	1,308899	0,665894
0,001000	1,449127	4,685211
0,002000	1,283417	4,705200
0,003000	1,482849	4,999847
0,004000	1,260376	4,999847
0,005000	1,513824	4,999847
0,006000	1,268463	4,999847
0,007000	1,475220	4,999847
0,008000	1,323853	4,999847
0,009000	1,433868	4,260254
0,010000	1,374512	2,676239
0,011000	1,396790	4,999847
0,012000	1,420593	3,781433
0,013000	1,364441	4,999847
0,014000	1,461945	4,999847
0,015000	1,335754	4,999847
0,016000	1,500244	4,999847
0,017000	1,310577	4,999847
0,018000	1,535034	4,999847
0,019000	1,288452	3,790588
0,020000	1,546783	1,738434
0,021000	1,321259	4,022522
0,022000	1,501923	4,434967
0,023000	1,377716	4,999847
0,024000	1,460876	4,999847
0,025000	1,428375	4,999847
0,026000	1,425018	4,999847
0,027000	1,474304	4,999847
0,028000	1,393585	4,612427
0,029000	1,515961	3,677216
0,030000	1,365204	4,292908
0,031000	1,553650	3,466949
0,032000	1,341095	3,460846
0,033000	1,588593	4,999847
0,034000	1,323700	4,999847
0,035000	1,576538	4,999847
0,036000	1,379547	4,999847
0,037000	1,530762	4,999847
0,038000	1,434784	4,999847
0,039000	1,491089	3,249054
0,040000	1,484833	2,066650
0,041000	1,394196	4,999847
0,042000	1,453094	4,737091
0,043000	1,392822	4,999847
0,044000	1,558533	4,999847
0,045000	1,393585	4,999847
0,046000	1,607819	4,999847
0,047000	1,375580	4,999847
0,048000	1,643677	4,999847
0,049000	1,379852	4,067993
0,050000	1,605530	3,746490
0,051000	1,440125	4,515533
0,052000	1,561890	2,998657
0,053000	1,494141	4,999847
0,054000	1,523132	4,999847
0,055000	1,544495	4,999847
0,056000	1,490784	4,999847
0,057000	1,589355	4,999847
0,058000	1,461639	4,177704
0,059000	1,629791	3,816833
0,060000	1,434784	4,120483
0,061000	1,666565	3,999176
0,062000	1,414032	4,546051
0,063000	1,684113	4,999847
0,064000	1,444550	4,999847
0,065000	1,638031	4,999847
0,066000	1,504364	4,999847
0,067000	1,595917	4,999847
0,068000	1,557312	4,999847
0,069000	1,558685	3,881683
0,070000	1,605530	2,853699
0,071000	1,526642	4,642487
0,072000	1,649475	3,870239
0,073000	1,499176	4,999847
0,074000	1,688843	4,999847
0,075000	1,474915	4,999847
0,076000	1,724854	4,999847
0,077000	1,454163	4,999847
0,078000	1,716003	4,402771
0,079000	1,509247	3,009644
0,080000	1,670380	3,787537
0,081000	1,567535	4,532318
0,082000	1,630554	4,999847
0,083000	1,619720	4,999847
0,084000	1,595764	4,999847
0,085000	1,667175	4,999847
0,086000	1,564941	4,999847
0,087000	1,709595	4,999847
0,088000	1,538239	4,999847
0,089000	1,748352	3,451691
0,090000	1,515045	4,312592
0,091000	1,783600	3,917084
0,092000	1,514282	3,578339
0,093000	1,748657	4,999847
0,094000	1,575623	4,999847
0,095000	1,705475	4,999847
0,096000	1,631927	4,999847
0,097000	1,666412	4,999847
0,098000	1,682587	4,999847
0,099000	1,632690	2,625732
0,100000	1,728516	3,222504
0,101000	1,603546	3,153839
0,102000	1,770630	4,842834
0,103000	1,578827	4,999847
0,104000	1,808014	4,999847
0,105000	1,556091	4,999847
0,106000	1,828156	4,999847
0,107000	1,580811	4,999847
0,108000	1,781921	4,763184
0,109000	1,640778	4,861603
0,110000	1,739807	2,566376
0,111000	1,695709	4,657898
0,112000	1,703186	3,935699
0,113000	1,746063	4,999847
0,114000	1,672058	4,999847
0,115000	1,790009	4,999847
0,116000	1,643066	4,999847
0,117000	1,829681	4,999847
0,118000	1,618652	4,999847
0,119000	1,866760	3,067474
0,120000	1,596527	2,518311
0,121000	1,863708	4,021759
0,122000	1,648407	4,792786
0,123000	1,819000	4,999847
0,124000	1,709137	4,999847
0,125000	1,780548	4,999847
0,126000	1,762848	4,999847
0,127000	1,746063	4,999847
0,128000	1,811066	4,999847
0,129000	1,716309	4,127808
0,130000	1,854553	4,258118
0,131000	1,690216	3,044739
0,132000	1,895905	4,074249
0,133000	1,667633	4,999847
0,134000	1,935272	4,999847
0,135000	1,661835	4,999847
0,136000	1,909027	4,999847
0,137000	1,723175	4,999847
0,138000	1,867981	4,741516
0,139000	1,780701	3,314667
0,140000	1,830597	3,680267
0,141000	1,831970	3,102112
0,142000	1,796722	4,999847
0,143000	1,847076	4,999847
0,144000	1,693573	4,999847
0,145000	1,889954	4,999847
0,146000	1,723175	4,999847
0,147000	1,958466	4,999847
0,148000	1,715088	4,999847
0,149000	1,996155	4,503174
0,150000	1,737213	2,054596
0,151000	1,959076	4,394531
0,152000	1,798706	3,243866
0,153000	1,922150	4,999847
0,154000	1,853638	4,999847
0,155000	1,886749	4,999847
0,156000	1,905060	4,999847
0,157000	1,855927	4,999847
0,158000	1,954956	4,812775
0,159000	1,827698	3,703766
0,160000	2,002869	2,563324
0,161000	1,802979	4,999847
0,162000	2,048798	4,927979
0,163000	1,780853	4,999847
0,164000	2,057648	4,999847
0,165000	1,824341	4,999847
0,166000	2,020874	4,999847
0,167000	1,883545	4,999847
0,168000	1,986084	4,999847
0,169000	1,940002	3,400269
0,170000	1,954803	4,305115
0,171000	1,811066	3,620605
0,172000	1,811371	3,032837
0,173000	1,811371	4,999847
0,174000	1,812286	4,999847
0,175000	2,079926	4,999847
0,176000	1,854706	4,999847
0,177000	2,125244	4,999847
0,178000	1,846466	4,999847
0,179000	2,101288	3,748016
0,180000	1,905975	4,160156
0,181000	2,064056	2,661285
0,182000	1,964722	4,999847
0,183000	2,032013	4,999847
0,184000	2,022552	4,999847
0,185000	2,001801	4,999847
0,186000	2,076569	4,999847
0,187000	1,973572	4,999847
0,188000	2,126617	4,999847
0,189000	1,946564	4,023285
0,190000	2,171173	4,070892
0,191000	1,921844	3,393250
0,192000	2,192841	3,979034
0,193000	1,937103	4,999847
0,194000	2,148590	4,999847
0,195000	1,996613	4,999847
0,196000	2,109222	4,999847
0,197000	2,052765	4,999847
0,198000	2,073669	4,212341
0,199000	2,106323	2,984009
0,200000	2,041473	4,047241
0,201000	2,155457	2,502441
0,202000	2,011566	4,999847
0,203000	2,196503	4,999847
0,204000	1,984711	4,999847
0,205000	2,223206	4,999847
0,206000	1,959229	4,999847
0,207000	2,203522	4,999847
0,208000	2,001953	4,999847
0,209000	2,157288	3,860168
0,210000	2,060242	3,228149
0,211000	2,119904	3,798523
0,212000	2,117615	3,651428
0,213000	2,087860	4,999847
0,214000	2,168732	4,999847
0,215000	2,058563	4,999847
0,216000	2,209015	4,999847
0,217000	2,032776	4,999847
0,218000	1,858063	4,624329
0,219000	1,762390	3,914337
0,220000	1,721649	3,598480
0,221000	1,704254	3,932343
0,222000	1,697083	4,999847
0,223000	1,693726	4,999847
0,224000	1,692352	4,999847
0,225000	1,692200	4,999847
0,226000	1,691284	4,999847
0,227000	1,690979	4,999847
0,228000	1,690979	4,999847
0,229000	1,690979	4,877167
0,230000	1,690521	3,365784
0,231000	1,690521	3,172760
0,232000	1,689911	4,934235
0,233000	1,690521	4,999847
0,234000	1,690369	4,999847
0,235000	1,690216	4,999847
0,236000	1,690216	4,999847
0,237000	1,690369	4,999847
0,238000	1,690216	4,999847
0,239000	1,442566	3,827667
0,240000	1,188507	3,811798
0,241000	1,090240	2,795868
0,242000	1,034241	4,999847
0,243000	1,035614	4,999847
0,244000	1,004791	4,999847
0,245000	1,032867	4,999847
0,246000	0,936279	4,999847
0,247000	1,004028	4,999847
0,248000	0,979767	4,999847
0,249000	1,031952	4,178162
0,250000	1,002655	2,754517
0,251000	1,031342	4,451447
0,252000	1,016693	2,930908
0,253000	1,027832	4,999847
0,254000	1,028900	4,999847
0,255000	1,023407	4,999847
0,256000	1,039276	4,999847
0,257000	1,017914	4,999847
0,258000	1,049652	4,394379
0,259000	1,013794	3,947601
0,260000	1,060638	3,693848
0,261000	1,009827	3,243561
0,262000	1,071625	4,879608
0,263000	1,013031	4,999847
0,264000	1,065369	4,999847
0,265000	1,027679	4,999847
0,266000	1,056671	4,999847
0,267000	1,041870	4,999847
0,268000	1,049194	4,999847
0,269000	1,055756	4,659119
0,270000	1,041870	3,412476
0,271000	1,069031	4,999847
0,272000	1,035309	4,803467
0,273000	1,081390	4,659119
0,274000	1,029205	4,999847
0,275000	1,093597	4,999847
0,276000	1,023407	4,999847
0,277000	1,100769	4,999847
0,278000	1,033325	4,912109
0,279000	1,089478	3,581543
0,280000	1,051178	2,507629
0,281000	1,078644	4,172211
0,282000	1,068573	4,999847
0,283000	1,068878	4,999847
0,284000	1,085052	4,999847
0,285000	1,059875	4,999847
0,286000	1,100922	4,999847
0,287000	1,051331	4,999847
0,288000	1,115875	4,837341
0,289000	1,043701	4,814911
0,290000	1,129913	4,781799
0,291000	1,037750	4,051056
0,292000	1,128998	3,689575
0,293000	1,057129	4,999847
0,294000	1,114197	4,999847
0,295000	1,078491	4,999847
0,296000	1,100922	4,999847
0,297000	1,098328	4,999847
0,298000	1,088715	4,999847
0,299000	1,116486	3,381805
0,300000	1,075745	3,232117
0,301000	1,133575	2,770691
0,302000	1,066589	4,674225
0,303000	1,151276	4,999847
0,304000	1,057587	4,999847
0,305000	1,166382	4,999847
0,306000	1,058044	4,999847
0,307000	1,154633	4,999847
0,308000	1,083679	4,999847
0,309000	1,137543	4,391785
0,310000	1,108093	3,385468
0,311000	1,120911	4,654694
0,312000	1,129761	4,039001
0,313000	1,107025	4,999847
0,314000	1,150818	4,999847
0,315000	1,093597	4,999847
0,316000	1,170349	4,999847
0,317000	1,081696	4,999847
0,318000	1,188507	4,337769
0,319000	1,071167	3,648834
0,320000	1,199341	1,941986
0,321000	1,083679	3,969269
0,322000	1,178589	4,685211
0,323000	1,112213	4,999847
0,324000	1,159058	4,999847
0,325000	1,138306	4,999847
0,326000	1,140442	4,999847
0,327000	1,162720	4,999847
0,328000	1,124573	4,999847
0,329000	1,185455	4,231873
0,330000	1,109009	3,673706
0,331000	1,207123	3,546906
0,332000	1,096039	3,944855
0,333000	1,226959	4,999847
0,334000	1,084137	4,999847
0,335000	1,226044	4,999847
0,336000	1,111908	4,999847
0,337000	1,201630	4,999847
0,338000	1,143036	4,537201
0,339000	1,179504	3,527527
0,340000	1,171875	3,222961
0,341000	1,159363	3,552551
0,342000	1,198730	3,765869
0,343000	1,141357	4,999847
0,344000	1,223602	4,999847
0,345000	1,124878	4,999847
0,346000	1,246033	4,999847
0,347000	1,110077	4,999847
0,348000	1,217499	4,999847
0,349000	1,027222	4,107056
0,350000	1,177673	4,600830
0,351000	1,112213	3,519897
0,352000	1,210480	3,708801
0,353000	1,170807	4,999847
0,354000	1,197052	4,999847
0,355000	1,206665	4,999847
0,356000	1,176910	4,999847
0,357000	1,236267	4,999847
0,358000	1,157074	4,234772
0,359000	1,261597	3,871918
0,360000	1,139679	4,999847
0,361000	1,286926	4,062805
0,362000	1,124420	4,999847
0,363000	1,303864	4,999847
0,364000	1,138153	4,999847
0,365000	1,273804	4,999847
0,366000	1,176910	4,999847
0,367000	1,244659	4,999847
0,368000	1,212616	4,999847
0,369000	1,218414	3,357239
0,370000	1,245270	3,961334
0,371000	1,195374	4,497986
0,372000	1,275482	4,016876
0,373000	1,174316	4,999847
0,374000	1,303711	4,999847
0,375000	1,155090	4,999847
0,376000	1,328888	4,999847
0,377000	1,138153	4,999847
0,378000	1,329498	4,572296
0,379000	1,161804	3,596649
0,380000	1,268616	2,155304
0,381000	1,179962	3,994293
0,382000	1,220551	4,785461
0,383000	1,194611	4,999847
0,384000	1,188965	4,999847
0,385000	1,264343	4,999847
0,386000	1,197662	4,999847
0,387000	1,310730	4,999847
0,388000	1,188202	4,951935
0,389000	1,344757	4,224243
0,390000	1,170197	3,721313
0,391000	1,371765	4,681091
0,392000	1,163177	3,841248
0,393000	1,352539	4,841461
0,394000	1,208954	4,999847
0,395000	1,316681	4,999847
0,396000	1,251678	4,999847
0,397000	1,284790	4,999847
0,398000	1,290741	3,791046
0,399000	1,256409	3,662567
0,400000	1,326447	4,209442
0,401000	1,230469	3,885193
0,402000	1,359100	4,999847
0,403000	1,207123	4,999847
0,404000	1,388550	4,999847
0,405000	1,187134	4,999847
0,406000	1,411591	4,999847
0,407000	1,200562	4,999847
0,408000	1,374512	4,999847
0,409000	1,249084	3,609314
0,410000	1,337280	3,304596
0,411000	1,292114	4,605103
0,412000	1,303558	3,691559
0,413000	1,332550	4,999847
0,414000	1,274719	4,999847
0,415000	1,369934	4,999847
0,416000	1,249237	4,999847
0,417000	1,403503	4,999847
0,418000	1,225128	4,519501
0,419000	1,433716	2,630920
0,420000	1,205444	2,191772
0,421000	1,430969	4,156189
0,422000	1,239166	4,999847
0,423000	1,395569	4,999847
0,424000	1,291962	4,999847
0,425000	1,359100	4,999847
0,426000	1,337128	4,999847
0,427000	1,326294	4,999847
0,428000	1,378632	4,999847
0,429000	1,296997	4,294281
0,430000	1,416168	2,922363
0,431000	1,270142	3,006134
0,432000	1,449890	4,497986
0,433000	1,247406	4,999847
0,434000	1,481934	4,999847
0,435000	1,235962	4,999847
0,436000	1,462555	4,999847
0,437000	1,288910	4,999847
0,438000	1,420288	4,528809
0,439000	1,339569	3,800659
0,440000	1,383209	3,803253
0,441000	1,385803	2,821655
0,442000	1,349945	4,497986
0,443000	1,427307	4,999847
0,444000	1,320953	4,999847
0,445000	1,465607	4,999847
0,446000	1,295013	4,999847
0,447000	1,500397	4,999847
0,448000	1,272125	4,718781
0,449000	1,528931	4,999847
0,450000	1,275177	3,478851
0,451000	1,415710	4,999847
0,452000	1,276398	3,759308
0,453000	1,419678	4,903412
0,454000	1,379700	4,999847
0,455000	1,404114	4,999847
0,456000	1,433868	4,999847
0,457000	1,374359	4,999847
0,458000	1,466827	4,794464
0,459000	1,342010	2,950134
0,460000	1,513824	3,795929
0,461000	1,320801	2,607727
0,462000	1,551056	4,999847
0,463000	1,300049	4,999847
0,464000	1,559906	4,999847
0,465000	1,337433	4,999847
0,466000	1,514282	4,999847
0,467000	1,393890	4,999847
0,468000	1,474304	4,999847
0,469000	1,445007	4,880066
0,470000	1,437836	2,658691
0,471000	1,491089	4,548035
0,472000	1,405945	4,578705
0,473000	1,532898	4,999847
0,474000	1,379700	4,999847
0,475000	1,571960	4,999847
0,476000	1,355438	4,999847
0,477000	1,606598	4,999847
0,478000	1,340179	4,236908
0,479000	1,589661	4,033508
0,480000	1,396027	3,473969
0,481000	1,543121	4,999847
0,482000	1,451721	4,445648
0,483000	1,504364	4,999847
0,484000	1,502686	4,999847
0,485000	1,469574	4,999847
0,486000	1,542969	4,999847
0,487000	1,437378	4,999847
0,488000	1,588593	4,999847
0,489000	1,413879	4,696655
0,490000	1,627960	2,928314
0,491000	1,391602	4,999847
0,492000	1,661835	3,572540
0,493000	1,399841	4,966888
0,494000	1,621094	4,999847
0,495000	1,460266	4,999847
0,496000	1,576843	4,999847
0,497000	1,513062	4,999847
0,498000	1,537933	4,037323
0,499000	1,562500	3,798523
0,500000	1,504364	2,704468
0,501000	1,607056	4,460907
0,502000	1,475830	4,999847
0,503000	1,647491	4,999847
0,504000	1,450806	4,999847
0,505000	1,684418	4,999847
0,506000	1,428833	4,999847
0,507000	1,697540	4,999847
0,508000	1,462860	4,999847
0,509000	1,652679	4,378052
0,510000	1,522827	3,926544
0,511000	1,611023	3,639984
0,512000	1,565704	4,099121
0,513000	1,569672	4,999847
0,514000	1,622925	4,999847
0,515000	1,541748	4,999847
0,516000	1,667938	4,999847
0,517000	1,514587	4,999847
0,518000	1,707764	4,680939
0,519000	1,491394	4,202728
0,520000	1,743622	3,646240
0,521000	1,472473	4,277649
0,522000	1,731262	4,999847
0,523000	1,529236	4,999847
0,524000	1,685791	4,999847
0,525000	1,587219	4,999847
0,526000	1,646423	4,999847
0,527000	1,639252	4,999847
0,528000	1,610870	4,999847
0,529000	1,686249	4,701080
0,530000	1,580963	3,314362
0,531000	1,728973	4,020386
0,532000	1,553955	3,349152
0,533000	1,767426	4,620361
0,534000	1,531219	4,999847
0,535000	1,801910	4,999847
0,536000	1,533356	4,999847
0,537000	1,762848	4,999847
0,538000	1,594238	4,999847
0,539000	1,719818	4,254150
0,540000	1,651001	3,309631
0,541000	1,681519	3,872375
0,542000	1,701508	4,999847
0,543000	1,647797	4,999847
0,544000	1,747284	4,999847
0,545000	1,619263	4,999847
0,546000	1,788635	4,999847
0,547000	1,593781	4,999847
0,548000	1,826324	4,999847
0,549000	1,572113	3,657684
0,550000	1,843567	3,724518
0,551000	1,600647	3,014069
0,552000	1,795044	4,044800
0,553000	1,601715	4,913177
0,554000	1,725769	4,999847
0,555000	1,704102	4,999847
0,556000	1,715240	4,999847
0,557000	1,764221	4,999847
0,558000	1,688385	4,999847
0,559000	1,810455	3,337097
0,560000	1,661682	2,334595
0,561000	1,851654	4,339905
0,562000	1,639099	4,999847
0,563000	1,890411	4,999847
0,564000	1,618195	4,999847
0,565000	1,883545	4,999847
0,566000	1,672058	4,999847
0,567000	1,840363	4,999847
0,568000	1,731873	4,999847
0,569000	1,801300	4,458160
0,570000	1,784515	2,998199
0,571000	1,766357	4,761963
0,572000	1,831970	4,567413
0,573000	1,736908	4,999847
0,574000	1,876373	4,999847
0,575000	1,710815	4,999847
0,576000	1,918793	4,999847
0,577000	1,688385	4,999847
0,578000	1,955566	4,999847
0,579000	1,683502	2,894897
0,580000	1,929321	3,489227
0,581000	1,745758	3,475952
0,582000	1,889343	4,937439
0,583000	1,803436	4,999847
0,584000	1,852112	4,999847
0,585000	1,853790	4,999847
0,586000	1,819305	4,999847
0,587000	1,902313	4,999847
0,588000	1,790009	4,868774
0,589000	1,948853	4,373016
0,590000	1,765137	3,676758
0,591000	1,993103	2,695923
0,592000	1,743011	3,294830
0,593000	2,022095	4,913635
0,594000	1,764984	4,999847
0,595000	1,984253	4,999847
0,596000	1,825867	4,999847
0,597000	1,948395	4,999847
0,598000	1,881104	4,123688
0,599000	1,914673	3,438568
0,600000	1,933441	3,819427
0,601000	1,884003	4,254913
0,602000	1,984253	4,999847
0,603000	1,856079	4,999847
0,604000	2,032928	4,999847
0,605000	1,831055	4,999847
0,606000	2,079468	4,999847
0,607000	1,807861	4,999847
0,608000	2,085724	4,999847
0,609000	1,810760	4,160614
0,610000	1,812439	3,324585
0,611000	1,813049	3,716278
0,612000	1,945343	4,080658
0,613000	1,975861	4,999847
0,614000	1,996918	4,999847
0,615000	1,945038	4,999847
0,616000	2,049866	4,999847
0,617000	1,912537	4,999847
0,618000	2,096558	3,963318
0,619000	1,892700	3,111115
0,620000	2,145081	3,585052
0,621000	1,869049	2,257843
0,622000	2,141113	4,999847
0,623000	1,921234	4,999847
0,624000	2,103119	4,999847
0,625000	1,981964	4,999847
0,626000	2,067871	4,999847
0,627000	2,039185	4,999847
0,628000	2,034760	4,999847
0,629000	2,091675	3,994598
0,630000	2,004547	3,359833
0,631000	2,140656	4,439850
0,632000	1,976471	3,667908
0,633000	2,183990	4,999847
0,634000	1,950073	4,999847
0,635000	2,214661	4,999847
0,636000	1,943359	4,999847
0,637000	2,172394	4,999847
0,638000	2,002411	3,838043
0,639000	2,131042	2,950745
0,640000	2,059326	2,628479
0,641000	2,094269	3,436279
0,642000	2,112885	4,976196
0,643000	2,061768	4,999847
0,644000	2,162628	4,999847
0,645000	2,032013	4,999847
0,646000	2,202759	4,999847
0,647000	2,005463	4,999847
0,648000	2,227783	4,884338
0,649000	1,980896	4,873199
0,650000	2,223053	3,136902
0,651000	2,001038	4,342804
0,652000	2,173615	3,784637
0,653000	2,061768	4,999847
0,654000	2,135620	4,999847
0,655000	1,891022	4,999847
0,656000	1,726532	4,999847
0,657000	1,706238	4,999847
0,658000	1,697083	4,051361
0,659000	1,693268	3,210449
0,660000	1,691132	3,750763
0,661000	1,690826	3,136597
0,662000	1,690521	4,999847
0,663000	1,690369	4,999847
0,664000	1,689911	4,999847
0,665000	1,690063	4,999847
0,666000	1,690216	4,999847
0,667000	1,686401	4,999847
0,668000	1,688843	4,999847
0,669000	1,689758	4,181366
0,670000	1,690063	2,881012
0,671000	1,690521	4,766235
0,672000	1,690216	4,975586
0,673000	1,690369	4,999847
0,674000	1,690216	4,999847
0,675000	1,689606	4,999847
0,676000	1,648407	4,999847
0,677000	1,302490	4,999847
0,678000	1,106262	4,393921
0,679000	1,073303	3,909149
0,680000	1,017456	2,836304
0,681000	1,029053	3,582611
0,682000	1,010437	4,999847
0,683000	1,017761	4,999847
0,684000	1,017151	4,999847
0,685000	1,012878	4,999847
0,686000	1,027222	4,999847
0,687000	1,008606	4,999847
0,688000	1,035767	4,999847
0,689000	1,006317	4,275513
0,690000	1,045990	3,383636
0,691000	1,003418	3,692169
0,692000	1,055450	4,140472
0,693000	1,005554	4,999847
0,694000	1,051331	4,999847
0,695000	1,018372	4,999847
0,696000	1,044159	4,999847
0,697000	1,030579	4,999847
0,698000	1,037750	4,999847
0,699000	1,043396	3,829651
0,700000	1,031799	3,983765
0,701000	1,055450	3,921814
0,702000	1,026154	4,999847
0,703000	1,061249	4,999847
0,704000	1,018372	4,999847
0,705000	1,076965	4,999847
0,706000	1,015930	4,999847
0,707000	1,085968	4,999847
0,708000	1,024628	4,999847
0,709000	1,076508	4,518280
0,710000	1,041107	3,691864
0,711000	1,066437	3,574371
0,712000	1,056366	4,170685
0,713000	1,058197	4,999847
0,714000	1,071320	4,999847
0,715000	1,049805	4,999847
0,716000	1,085663	4,999847
0,717000	1,042633	4,999847
0,718000	1,099701	4,999847
0,719000	1,035614	3,904419
0,720000	1,112823	3,511963
0,721000	1,030121	3,566437
0,722000	1,114044	4,999847
0,723000	1,047668	4,999847
0,724000	1,100769	4,999847
0,725000	1,067352	4,999847
0,726000	1,089325	4,999847
0,727000	1,086273	4,999847
0,728000	1,078491	4,528503
0,729000	1,097870	4,089508
0,730000	1,065674	2,807159
0,731000	1,118774	4,824677
0,732000	1,058197	3,701324
0,733000	1,135406	4,795227
0,734000	1,050262	4,999847
0,735000	1,142273	4,999847
0,736000	1,046600	4,999847
0,737000	1,139069	4,999847
0,738000	1,072540	4,999847
0,739000	1,123352	4,070587
0,740000	1,093903	3,406372
0,741000	1,108398	4,598694
0,742000	1,114349	4,999847
0,743000	1,094971	4,999847
0,744000	1,134491	4,999847
0,745000	1,083069	4,999847
0,746000	1,152954	4,999847
0,747000	1,071777	4,999847
0,748000	1,170654	4,999847
0,749000	1,062775	4,290466
0,750000	1,181793	3,365173
0,751000	1,072388	4,693298
0,752000	1,163025	3,166962
0,753000	1,099396	4,999847
0,754000	1,133728	4,999847
0,755000	1,119232	4,999847
0,756000	1,126862	4,999847
0,757000	1,146698	4,960785
0,758000	1,047363	4,825897
0,759000	1,085358	4,055634
0,760000	1,022949	3,631592
0,761000	1,157532	3,339386
0,762000	1,074219	4,781799
0,763000	1,203613	4,999847
0,764000	1,074371	4,999847
0,765000	1,208344	4,999847
0,766000	1,099243	4,999847
0,767000	1,185608	4,999847
0,768000	1,128845	4,999847
0,769000	1,161804	4,330444
0,770000	1,155090	4,008179
0,771000	1,146088	4,268036
0,772000	1,181183	3,677673
0,773000	1,128693	4,999847
0,774000	1,205139	4,999847
0,775000	1,114044	4,999847
0,776000	1,227417	4,999847
0,777000	1,100159	4,999847
0,778000	1,247864	4,556580
0,779000	1,095734	3,786469
0,780000	1,233826	3,356323
0,781000	1,129761	3,978424
0,782000	1,208496	4,873047
0,783000	1,161957	4,999847
0,784000	1,185608	4,999847
0,785000	1,191711	4,999847
0,786000	1,165466	4,999847
0,787000	1,218719	4,999847
0,788000	1,145630	4,999847
0,789000	1,243896	3,265381
0,790000	1,128998	3,395233
0,791000	1,267853	4,783783
0,792000	1,114502	3,955536
0,793000	1,285400	4,999847
0,794000	1,125031	4,999847
0,795000	1,253510	4,999847
0,796000	1,160583	4,999847
0,797000	1,228790	4,999847
0,798000	1,196289	4,999847
0,799000	1,204681	3,337860
0,800000	1,227722	4,099274
0,801000	1,181793	4,547882
0,802000	1,257172	4,999847
0,803000	1,162109	4,999847
0,804000	1,283875	4,999847
0,805000	1,144409	4,999847
0,806000	1,309052	4,999847
0,807000	1,128235	4,999847
0,808000	1,311646	4,999847
0,809000	1,157532	3,898773
0,810000	1,280060	2,850800
0,811000	1,197968	4,999847
0,812000	1,250763	3,761139
0,813000	1,233673	4,999847
0,814000	1,223907	4,999847
0,815000	1,263428	4,999847
0,816000	1,198425	4,999847
0,817000	1,297150	4,999847
0,818000	1,178589	4,999847
0,819000	1,325989	3,725891
0,820000	1,159515	3,753510
0,821000	1,352081	3,589935
0,822000	1,150360	4,598083
0,823000	1,334991	4,999847
0,824000	1,193542	4,999847
0,825000	1,300812	4,999847
0,826000	1,234894	4,999847
0,827000	1,270294	4,999847
0,828000	1,272888	4,999847
0,829000	1,241760	3,654327
0,830000	1,307526	3,655396
0,831000	1,217346	4,270630
0,832000	1,339569	4,405060
0,833000	1,194916	4,999847
0,834000	1,368561	4,999847
0,835000	1,175079	4,999847
0,836000	1,392975	4,999847
0,837000	1,185150	4,999847
0,838000	1,357727	4,350586
0,839000	1,232147	3,052063
0,840000	1,321411	3,829956
0,841000	1,274719	3,245697
0,842000	1,288910	4,999847
0,843000	1,314392	4,999847
0,844000	1,260834	4,999847
0,845000	1,350555	4,999847
0,846000	1,235046	4,999847
0,847000	1,382446	4,999847
0,848000	1,212616	4,999847
0,849000	1,413269	4,655151
0,850000	1,192474	3,164825
0,851000	1,420135	4,999847
0,852000	1,225433	3,146057
0,853000	1,379089	4,999847
0,854000	1,273804	4,999847
0,855000	1,342773	4,999847
0,856000	1,318054	4,999847
0,857000	1,309814	4,999847
0,858000	1,358185	4,928589
0,859000	1,280518	3,054047
0,860000	1,346588	3,002319
0,861000	1,193695	3,811798
0,862000	1,403198	4,999847
0,863000	1,222229	4,999847
0,864000	1,455078	4,999847
0,865000	1,217194	4,999847
0,866000	1,443024	4,999847
0,867000	1,269073	4,999847
0,868000	1,402130	4,999847
0,869000	1,319275	4,700012
0,870000	1,364746	3,710480
0,871000	1,364288	4,558258
0,872000	1,332245	4,395752
0,873000	1,405487	4,999847
0,874000	1,303253	4,999847
0,875000	1,439056	4,999847
0,876000	1,276245	4,999847
0,877000	1,476593	4,999847
0,878000	1,254730	4,999847
0,879000	1,507111	3,363190
0,880000	1,262817	3,511963
0,881000	1,468811	4,520721
0,882000	1,318054	4,999847
0,883000	1,427155	4,999847
0,884000	1,368256	4,999847
0,885000	1,389923	4,999847
0,886000	1,414337	4,999847
0,887000	1,357880	4,999847
0,888000	1,455536	4,592285
0,889000	1,329193	4,093170
0,890000	1,493378	3,030548
0,891000	1,303864	4,331512
0,892000	1,528015	4,699402
0,893000	1,281891	4,999847
0,894000	1,539307	4,999847
0,895000	1,315613	4,999847
0,896000	1,495819	4,999847
0,897000	1,371918	4,999847
0,898000	1,453857	4,358673
0,899000	1,421051	3,634033
0,900000	1,417847	2,725525
0,901000	1,467438	3,778229
0,902000	1,386261	4,999847
0,903000	1,509247	4,999847
0,904000	1,358795	4,999847
0,905000	1,546478	4,999847
0,906000	1,334229	4,999847
0,907000	1,581573	4,999847
0,908000	1,316833	4,586792
0,909000	1,568451	4,999847
0,910000	1,372375	3,318939
0,911000	1,523590	4,220734
0,912000	1,427765	3,610992
0,913000	1,483307	4,999847
0,914000	1,477814	4,999847
0,915000	1,449280	4,999847
0,916000	1,523285	4,999847
0,917000	1,413574	4,999847
0,918000	1,562653	4,631195
0,919000	1,390686	4,061584
0,920000	1,601715	4,098358
0,921000	1,368561	2,697601
0,922000	1,636047	4,999847
0,923000	1,373138	4,999847
0,924000	1,598358	4,999847
0,925000	1,433105	4,999847
0,926000	1,554413	4,999847
0,927000	1,487885	4,999847
0,928000	1,516113	4,553223
0,929000	1,537323	4,676056
0,930000	1,483002	2,754669
0,931000	1,581573	3,714294
0,932000	1,453400	4,212036
0,933000	1,622467	4,590302
0,934000	1,428680	4,999847
0,935000	1,659698	4,999847
0,936000	1,406708	4,999847
0,937000	1,675873	4,999847
0,938000	1,436462	4,427643
0,939000	1,629639	3,551483
0,940000	1,496277	3,007812
0,941000	1,587982	3,552856
0,942000	1,549835	4,999847
0,943000	1,545868	4,999847
0,944000	1,595459	4,999847
0,945000	1,518250	4,999847
0,946000	1,641388	4,999847
0,947000	1,491241	4,999847
0,948000	1,681519	4,999847
0,949000	1,467133	4,813843
0,950000	1,717224	2,945709
0,951000	1,446686	4,999847
0,952000	1,707764	4,047241
0,953000	1,501617	4,999847
0,954000	1,663055	4,999847
0,955000	1,559906	4,999847
0,956000	1,622925	4,999847
0,957000	1,612244	4,999847
0,958000	1,587830	4,675293
0,959000	1,659393	3,960876
0,960000	1,557312	2,345123
0,961000	1,702118	4,033356
0,962000	1,522675	4,833679
0,963000	1,668549	4,999847
0,964000	1,461334	4,999847
0,965000	1,756134	4,999847
0,966000	1,498413	4,999847
0,967000	1,737366	4,999847
0,968000	1,566467	4,999847
0,969000	1,696472	4,999847
0,970000	1,623840	3,006134
0,971000	1,658325	4,999847
0,972000	1,675110	3,351288
0,973000	1,625366	4,999847
0,974000	1,721344	4,999847
0,975000	1,595612	4,999847
0,976000	1,762848	4,999847
0,977000	1,570587	4,999847
0,978000	1,800385	4,323883
0,979000	1,548920	3,718567
0,980000	1,820831	3,604889
0,981000	1,574249	4,999847
0,982000	1,775055	4,999847
0,983000	1,634521	4,999847
0,984000	1,732178	4,999847
0,985000	1,688538	4,999847
0,986000	1,691589	4,999847
0,987000	1,736755	4,999847
0,988000	1,663208	4,999847
0,989000	1,782990	4,825592
0,990000	1,636200	2,718964
0,991000	1,823578	4,709473
0,992000	1,611938	3,815613
0,993000	1,860504	4,874878
0,994000	1,590729	4,999847
0,995000	1,857147	4,999847
0,996000	1,642609	4,999847
0,997000	1,811676	4,999847
0,998000	1,701813	4,999847
0,999000	1,772614	4,035797

