LabVIEW Measurement	
Writer_Version	2
Reader_Version	2
Separator	Tab
Decimal_Separator	,
Multi_Headings	Yes
X_Columns	One
Time_Pref	Absolute
Operator	d.nicolai
Date	2023/11/09
Time	15:52:34,4435127999997708487
***End_of_Header***	
	
Channels	2		
Samples	1000	1000	
Date	2023/11/09	2023/11/09	
Time	15:52:37,6185155999996802332	15:52:37,6185155999996802332	
Y_Unit_Label	Volts	Volts	
X_Dimension	Time	Time	
X0	0,0000000000000000E+0	0,0000000000000000E+0	
Delta_X	0,001000	0,001000	
***End_of_Header***			
X_Value	powebox	triggerbox	Comment
0,000000	1,474152	1,063080
0,001000	1,277008	4,999847
0,002000	1,430511	3,185425
0,003000	1,328583	4,999847
0,004000	1,392212	4,999847
0,005000	1,375885	4,999847
0,006000	1,358185	4,999847
0,007000	1,419067	4,999847
0,008000	1,327972	4,704742
0,009000	1,457062	2,748566
0,010000	1,301117	1,965790
0,011000	1,493225	3,810730
0,012000	1,277924	4,917603
0,013000	1,526184	4,999847
0,014000	1,271515	4,999847
0,015000	1,499634	4,999847
0,016000	1,326752	4,999847
0,017000	1,454926	4,999847
0,018000	1,378479	4,999847
0,019000	1,416779	4,109039
0,020000	1,426086	4,861298
0,021000	1,383514	2,639465
0,022000	1,468811	3,032379
0,023000	1,353760	4,999847
0,024000	1,508179	4,999847
0,025000	1,327972	4,999847
0,026000	1,544647	4,999847
0,027000	1,306763	4,850464
0,028000	1,571350	4,999847
0,029000	1,325684	3,252716
0,030000	1,526794	1,348114
0,031000	1,383057	4,999847
0,032000	1,483765	4,301758
0,033000	1,435089	4,999847
0,034000	1,447754	4,999847
0,035000	1,482849	4,999847
0,036000	1,415405	4,999847
0,037000	1,525879	4,999847
0,038000	1,387024	4,999847
0,039000	1,563568	3,651581
0,040000	1,360474	3,600464
0,041000	1,598816	4,216461
0,042000	1,339569	3,315430
0,043000	1,601868	4,999847
0,044000	1,384277	4,999847
0,045000	1,556396	4,999847
0,046000	1,441956	4,999847
0,047000	1,516113	4,999847
0,048000	1,493683	4,999847
0,049000	1,480255	3,741150
0,050000	1,540680	2,786560
0,051000	1,448975	3,604126
0,052000	1,582489	4,931183
0,053000	1,421661	4,999847
0,054000	1,620789	4,999847
0,055000	1,398010	4,999847
0,056000	1,656494	4,999847
0,057000	1,387787	4,999847
0,058000	1,632996	4,999847
0,059000	1,447144	4,155731
0,060000	1,588745	2,861938
0,061000	1,503448	4,098663
0,062000	1,548920	3,952179
0,063000	1,553955	4,999847
0,064000	1,514587	4,999847
0,065000	1,599274	4,999847
0,066000	1,484985	4,999847
0,067000	1,641083	4,999847
0,068000	1,459045	4,938507
0,069000	1,679535	3,429871
0,070000	1,365814	2,540741
0,071000	1,625519	4,913025
0,072000	1,409760	4,846191
0,073000	1,647491	4,999847
0,074000	1,504059	4,999847
0,075000	1,619110	4,999847
0,076000	1,565247	4,999847
0,077000	1,583862	4,999847
0,078000	1,615448	4,741058
0,079000	1,551514	4,371643
0,080000	1,660767	2,761688
0,081000	1,523132	3,863373
0,082000	1,700745	3,648834
0,083000	1,498260	4,999847
0,084000	1,738129	4,999847
0,085000	1,476898	4,999847
0,086000	1,744232	4,999847
0,087000	1,516724	4,999847
0,088000	1,697845	4,015961
0,089000	1,575623	3,257904
0,090000	1,657562	2,740326
0,091000	1,630096	4,999847
0,092000	1,621246	4,999847
0,093000	1,678314	4,999847
0,094000	1,590118	4,999847
0,095000	1,721954	4,999847
0,096000	1,563110	4,999847
0,097000	1,761932	4,999847
0,098000	1,539612	4,664001
0,099000	1,797485	4,346466
0,100000	1,525116	3,283234
0,101000	1,777802	4,818420
0,102000	1,584473	3,713379
0,103000	1,733246	4,999847
0,104000	1,642151	4,999847
0,105000	1,693573	4,999847
0,106000	1,693573	4,999847
0,107000	1,658173	4,999847
0,108000	1,740265	4,316406
0,109000	1,629028	3,220367
0,110000	1,783295	2,969055
0,111000	1,603241	2,879181
0,112000	1,821899	4,936981
0,113000	1,580811	4,999847
0,114000	1,854553	4,999847
0,115000	1,589661	4,999847
0,116000	1,811829	4,999847
0,117000	1,651306	4,999847
0,118000	1,768494	4,999847
0,119000	1,706848	3,795471
0,120000	1,731567	4,061432
0,121000	1,756897	2,296600
0,122000	1,698151	3,144531
0,123000	1,802521	4,999847
0,124000	1,670532	4,999847
0,125000	1,843567	4,999847
0,126000	1,644287	4,999847
0,127000	1,881104	4,999847
0,128000	1,622925	4,906616
0,129000	1,894684	3,823547
0,130000	1,657867	2,687683
0,131000	1,850433	4,225311
0,132000	1,718597	4,868011
0,133000	1,810608	4,999847
0,134000	1,773376	4,999847
0,135000	1,774750	4,999847
0,136000	1,822205	4,999847
0,137000	1,743469	4,999847
0,138000	1,866608	4,889221
0,139000	1,716614	4,523010
0,140000	1,910248	3,245850
0,141000	1,695099	3,644257
0,142000	1,952515	3,990173
0,143000	1,677704	4,999847
0,144000	1,943665	4,999847
0,145000	1,735687	4,999847
0,146000	1,902466	4,999847
0,147000	1,793213	4,999847
0,148000	1,864777	4,999847
0,149000	1,846161	3,391266
0,150000	1,830902	4,550781
0,151000	1,894684	2,867279
0,152000	1,800537	4,999847
0,153000	1,941528	4,999847
0,154000	1,774597	4,999847
0,155000	1,985931	4,999847
0,156000	1,751556	4,999847
0,157000	2,029572	4,999847
0,158000	1,754303	4,735718
0,159000	1,997070	4,680023
0,160000	1,815491	2,673340
0,161000	1,959686	4,631042
0,162000	1,871185	3,680115
0,163000	1,925659	4,613953
0,164000	1,924591	4,999847
0,165000	1,894684	4,999847
0,166000	1,976013	4,999847
0,167000	1,866150	4,999847
0,168000	2,025146	3,917694
0,169000	1,840363	3,588715
0,170000	2,072754	3,301392
0,171000	1,817780	4,948578
0,172000	2,050323	4,999847
0,173000	1,712036	4,999847
0,174000	1,771088	4,999847
0,175000	1,795807	4,999847
0,176000	1,806335	4,999847
0,177000	1,810455	4,999847
0,178000	1,811371	4,737244
0,179000	1,811981	4,499969
0,180000	1,812286	4,581757
0,181000	1,833954	3,836212
0,182000	2,074280	4,340210
0,183000	1,890717	4,999847
0,184000	2,036896	4,999847
0,185000	1,948395	4,999847
0,186000	2,004089	4,999847
0,187000	2,003784	4,999847
0,188000	1,973877	3,999023
0,189000	2,057953	3,318634
0,190000	1,947632	3,090973
0,191000	2,110138	4,999847
0,192000	1,920929	4,999847
0,193000	2,154846	4,999847
0,194000	1,898956	4,999847
0,195000	2,170868	4,999847
0,196000	1,926880	4,999847
0,197000	2,129364	4,999847
0,198000	1,986237	4,999847
0,199000	2,091675	4,570770
0,200000	2,042694	2,566681
0,201000	2,057190	4,546356
0,202000	2,095947	4,140625
0,203000	2,024841	4,999847
0,204000	2,145233	4,999847
0,205000	1,995697	4,999847
0,206000	2,186890	4,999847
0,207000	1,968536	4,999847
0,208000	2,216187	4,683990
0,209000	1,945190	4,156189
0,210000	2,190247	3,696136
0,211000	1,997375	3,260345
0,212000	2,145233	4,999847
0,213000	2,055206	4,999847
0,214000	2,108307	4,999847
0,215000	2,110748	4,999847
0,216000	2,075348	4,999847
0,217000	2,161407	4,999847
0,218000	2,045898	4,999847
0,219000	2,202301	4,366455
0,220000	2,019653	3,417358
0,221000	2,227325	4,061279
0,222000	1,994781	3,773041
0,223000	2,237244	4,999847
0,224000	1,974030	4,999847
0,225000	1,820984	4,999847
0,226000	1,745605	4,999847
0,227000	1,714172	4,999847
0,228000	1,700745	4,443054
0,229000	1,694946	2,842712
0,230000	1,691742	2,854614
0,231000	1,690369	4,641418
0,232000	1,689301	4,999847
0,233000	1,689301	4,999847
0,234000	1,688690	4,999847
0,235000	1,689301	4,999847
0,236000	1,689758	4,999847
0,237000	1,689911	4,999847
0,238000	1,690216	4,884186
0,239000	1,690216	3,904877
0,240000	1,689911	4,092712
0,241000	1,408234	3,496704
0,242000	1,167450	3,153534
0,243000	1,087036	4,999847
0,244000	1,027832	4,999847
0,245000	1,038361	4,999847
0,246000	1,001282	4,999847
0,247000	1,036377	4,999847
0,248000	0,994415	4,999847
0,249000	1,037445	2,784882
0,250000	1,000671	4,273376
0,251000	1,031342	3,877716
0,252000	1,013641	4,999847
0,253000	1,027069	4,999847
0,254000	1,024628	4,999847
0,255000	1,022491	4,999847
0,256000	1,035156	4,999847
0,257000	1,017609	4,999847
0,258000	1,045685	4,999847
0,259000	1,013184	4,469910
0,260000	1,056213	2,263031
0,261000	1,009674	4,999847
0,262000	1,065979	2,870789
0,263000	1,008759	4,999847
0,264000	1,064301	4,999847
0,265000	1,022949	4,999847
0,266000	1,054535	4,999847
0,267000	1,036072	4,999847
0,268000	1,047058	4,778290
0,269000	1,050873	3,162231
0,270000	1,041260	3,271484
0,271000	1,063385	3,848877
0,272000	1,034851	4,517365
0,273000	1,076355	4,999847
0,274000	1,022797	4,999847
0,275000	1,009369	4,999847
0,276000	0,965729	4,999847
0,277000	1,074219	4,999847
0,278000	1,017151	4,999847
0,279000	1,083069	4,079742
0,280000	1,043243	2,461700
0,281000	1,076202	4,999847
0,282000	1,061707	3,780060
0,283000	1,066742	4,999847
0,284000	1,077728	4,999847
0,285000	1,058044	4,999847
0,286000	1,093292	4,999847
0,287000	1,049500	4,999847
0,288000	1,108704	4,999847
0,289000	1,042023	2,714844
0,290000	1,122742	3,221436
0,291000	1,034393	3,952332
0,292000	1,126709	4,999847
0,293000	1,022949	4,999847
0,294000	1,098938	4,999847
0,295000	1,065521	4,999847
0,296000	1,098175	4,999847
0,297000	1,081390	4,999847
0,298000	1,056824	4,909515
0,299000	1,098022	3,326874
0,300000	1,046448	3,539886
0,301000	1,099854	3,189392
0,302000	1,055450	2,448578
0,303000	1,140289	4,999847
0,304000	1,042328	4,999847
0,305000	1,154633	4,999847
0,306000	1,050262	4,999847
0,307000	1,154175	4,999847
0,308000	1,076660	4,940186
0,309000	1,137390	2,680969
0,310000	1,100922	4,999847
0,311000	1,121979	3,488922
0,312000	1,123047	4,326172
0,313000	1,107483	4,999847
0,314000	1,143341	4,999847
0,315000	1,094208	4,999847
0,316000	1,163177	4,999847
0,317000	1,082611	4,999847
0,318000	1,181946	4,824524
0,319000	1,071472	4,020844
0,320000	1,197815	4,867096
0,321000	1,075745	3,419800
0,322000	1,178741	3,892059
0,323000	1,103821	4,999847
0,324000	1,159210	4,999847
0,325000	1,131134	4,999847
0,326000	1,141815	4,999847
0,327000	1,146851	4,999847
0,328000	1,111603	4,217529
0,329000	1,172943	3,280640
0,330000	1,082001	3,392029
0,331000	1,185760	4,444580
0,332000	1,090698	4,537659
0,333000	1,214142	4,999847
0,334000	1,066589	4,999847
0,335000	1,220245	4,999847
0,336000	1,100922	4,999847
0,337000	1,201782	4,999847
0,338000	1,135254	4,999847
0,339000	1,180878	3,897400
0,340000	1,164246	3,320923
0,341000	1,160889	4,873199
0,342000	1,190948	3,494110
0,343000	1,142273	4,999847
0,344000	1,215973	4,999847
0,345000	1,125031	4,999847
0,346000	1,239014	4,999847
0,347000	1,111298	4,999847
0,348000	1,260681	4,400940
0,349000	1,101379	3,923645
0,350000	1,253052	2,475281
0,351000	1,134338	3,820953
0,352000	1,224976	4,999847
0,353000	1,166840	4,999847
0,354000	1,200104	4,999847
0,355000	1,197662	4,999847
0,356000	1,177521	4,999847
0,357000	1,226959	4,999847
0,358000	1,157837	4,999847
0,359000	1,253357	4,188538
0,360000	1,075134	3,508911
0,361000	1,148529	3,874207
0,362000	1,071167	2,943573
0,363000	1,253052	4,999847
0,364000	1,108398	4,999847
0,365000	1,268158	4,999847
0,366000	1,163940	4,999847
0,367000	1,246033	4,999847
0,368000	1,202698	4,581604
0,369000	1,220856	3,048096
0,370000	1,236877	4,999847
0,371000	1,197510	2,998962
0,372000	1,266785	4,850006
0,373000	1,175995	4,999847
0,374000	1,295013	4,999847
0,375000	1,157074	4,999847
0,376000	1,319580	4,999847
0,377000	1,077728	4,999847
0,378000	1,254425	4,999847
0,379000	1,123810	4,139862
0,380000	1,283417	3,949432
0,381000	1,196594	4,967957
0,382000	1,265106	3,889313
0,383000	1,239319	4,467163
0,384000	1,218872	4,999847
0,385000	1,257019	4,999847
0,386000	1,207123	4,999847
0,387000	1,294250	4,999847
0,388000	1,174622	4,413452
0,389000	1,329956	3,153839
0,390000	1,169739	3,169708
0,391000	1,363220	3,596954
0,392000	1,155853	4,999847
0,393000	1,356812	4,999847
0,394000	1,197662	4,999847
0,395000	1,320801	4,999847
0,396000	1,241455	4,999847
0,397000	1,288300	4,999847
0,398000	1,281128	4,949951
0,399000	1,258850	4,652863
0,400000	1,317139	3,148041
0,401000	1,233063	3,569183
0,402000	1,349792	3,706360
0,403000	1,209717	4,999847
0,404000	1,380310	4,999847
0,405000	1,188507	4,999847
0,406000	1,407776	4,999847
0,407000	1,188965	4,999847
0,408000	1,378937	4,999847
0,409000	1,224213	4,200439
0,410000	1,336212	4,247894
0,411000	1,279602	3,311768
0,412000	1,306000	4,999847
0,413000	1,321259	4,999847
0,414000	1,276855	4,999847
0,415000	1,346588	4,999847
0,416000	1,222534	4,999847
0,417000	1,366730	4,999847
0,418000	1,206665	4,999847
0,419000	1,403656	3,989716
0,420000	1,182861	3,522491
0,421000	1,427307	3,184204
0,422000	1,214905	4,191284
0,423000	1,392212	4,999847
0,424000	1,273499	4,999847
0,425000	1,356812	4,999847
0,426000	1,319885	4,999847
0,427000	1,307373	4,999847
0,428000	1,358337	4,464569
0,429000	1,295624	3,467560
0,430000	1,404419	3,779144
0,431000	1,271820	3,132019
0,432000	1,439819	4,999847
0,433000	1,247864	4,999847
0,434000	1,472626	4,999847
0,435000	1,228180	4,999847
0,436000	1,467438	4,999847
0,437000	1,274872	4,999847
0,438000	1,424255	4,999847
0,439000	1,322479	4,503326
0,440000	1,374817	3,807220
0,441000	1,361389	2,885437
0,442000	1,340637	3,530426
0,443000	1,410980	4,999847
0,444000	1,309357	4,999847
0,445000	1,431122	4,999847
0,446000	1,285858	4,999847
0,447000	1,464844	4,999847
0,448000	1,262970	4,624023
0,449000	1,517944	3,130341
0,450000	1,267548	4,330139
0,451000	1,461945	3,208618
0,452000	1,311798	4,999847
0,453000	1,444550	4,999847
0,454000	1,375580	4,999847
0,455000	1,411285	4,999847
0,456000	1,424408	4,999847
0,457000	1,378479	4,999847
0,458000	1,457977	4,999847
0,459000	1,346283	3,847504
0,460000	1,504822	2,437744
0,461000	1,323242	4,857635
0,462000	1,538849	2,939301
0,463000	1,299591	4,999847
0,464000	1,563568	4,999847
0,465000	1,322479	4,999847
0,466000	1,519928	4,999847
0,467000	1,379242	4,999847
0,468000	1,476593	4,999847
0,469000	1,430817	4,358978
0,470000	1,439819	2,777252
0,471000	1,477966	4,999847
0,472000	1,407623	4,999847
0,473000	1,520233	4,999847
0,474000	1,379547	4,999847
0,475000	1,559143	4,999847
0,476000	1,354370	4,999847
0,477000	1,594391	4,999847
0,478000	1,332397	4,999847
0,479000	1,566010	4,897461
0,480000	1,326141	2,866669
0,481000	1,525879	4,375763
0,482000	1,426086	4,236450
0,483000	1,500854	4,727325
0,484000	1,476898	4,999847
0,485000	1,437378	4,999847
0,486000	1,512604	4,999847
0,487000	1,417999	4,999847
0,488000	1,568604	4,863586
0,489000	1,410370	2,638550
0,490000	1,600037	3,351440
0,491000	1,384583	3,161011
0,492000	1,649170	4,999847
0,493000	1,383209	4,999847
0,494000	1,625366	4,999847
0,495000	1,443634	4,999847
0,496000	1,581116	4,999847
0,497000	1,498566	4,999847
0,498000	1,540680	4,999847
0,499000	1,548920	3,822479
0,500000	1,507721	2,561646
0,501000	1,595459	4,076233
0,502000	1,477203	3,537903
0,503000	1,635437	4,999847
0,504000	1,450806	4,999847
0,505000	1,673279	4,999847
0,506000	1,428375	4,999847
0,507000	1,699982	4,999847
0,508000	1,445770	4,999847
0,509000	1,655426	4,093170
0,510000	1,506195	4,126282
0,511000	1,612854	3,865051
0,512000	1,560974	4,600830
0,513000	1,576233	4,999847
0,514000	1,611481	4,999847
0,515000	1,544647	4,999847
0,516000	1,656647	4,999847
0,517000	1,516266	4,999847
0,518000	1,697235	4,999847
0,519000	1,491852	3,607025
0,520000	1,734009	2,698517
0,521000	1,470947	4,373627
0,522000	1,737061	3,780823
0,523000	1,513672	4,999847
0,524000	1,690826	4,999847
0,525000	1,573334	4,999847
0,526000	1,649933	4,999847
0,527000	1,626129	4,999847
0,528000	1,614075	4,999847
0,529000	1,673126	3,770142
0,530000	1,582794	2,765808
0,531000	1,717377	4,877014
0,532000	1,555786	4,858551
0,533000	1,756592	4,999847
0,534000	1,531219	4,999847
0,535000	1,790924	4,999847
0,536000	1,518707	4,999847
0,537000	1,768036	4,999847
0,538000	1,579590	4,999847
0,539000	1,723938	4,119568
0,540000	1,635590	2,328491
0,541000	1,684113	4,665070
0,542000	1,687469	3,633423
0,543000	1,650238	4,999847
0,544000	1,735229	4,999847
0,545000	1,620789	4,999847
0,546000	1,778412	4,999847
0,547000	1,595764	4,999847
0,548000	1,816711	4,999847
0,549000	1,572876	3,859558
0,550000	1,846313	4,041595
0,551000	1,584930	4,688263
0,552000	1,803589	4,265594
0,553000	1,647339	4,999847
0,554000	1,761169	4,999847
0,555000	1,703186	4,999847
0,556000	1,723480	4,999847
0,557000	1,753387	4,999847
0,558000	1,691437	4,963837
0,559000	1,799011	3,603516
0,560000	1,663361	2,982788
0,561000	1,840210	4,006500
0,562000	1,638641	4,276581
0,563000	1,878357	4,999847
0,564000	1,617737	4,999847
0,565000	1,888580	4,999847
0,566000	1,656036	4,999847
0,567000	1,843719	4,999847
0,568000	1,716156	4,886780
0,569000	1,803436	3,776245
0,570000	1,770935	4,784088
0,571000	1,768188	3,793030
0,572000	1,819611	3,991547
0,573000	1,737518	4,999847
0,574000	1,863708	4,999847
0,575000	1,710815	4,999847
0,576000	1,905823	4,999847
0,577000	1,687164	4,999847
0,578000	1,947021	4,999847
0,579000	1,670837	3,784943
0,580000	1,933441	3,060303
0,581000	1,730042	4,049530
0,582000	1,808167	4,626617
0,583000	1,717224	4,999847
0,584000	1,814270	4,999847
0,585000	1,823273	4,999847
0,586000	1,808624	4,999847
0,587000	1,883545	4,999847
0,588000	1,787415	4,371948
0,589000	1,933594	2,985687
0,590000	1,764374	3,733673
0,591000	1,979523	3,278656
0,592000	1,741486	4,563751
0,593000	2,019043	4,999847
0,594000	1,746063	4,999847
0,595000	1,983948	4,999847
0,596000	1,808014	4,999847
0,597000	1,947327	4,999847
0,598000	1,863403	4,971313
0,599000	1,913147	4,754486
0,600000	1,916199	4,920502
0,601000	1,882477	2,471924
0,602000	1,966858	4,189148
0,603000	1,852570	4,486847
0,604000	2,014465	4,999847
0,605000	1,826172	4,999847
0,606000	2,061615	4,999847
0,607000	1,804962	4,999847
0,608000	2,084961	4,280701
0,609000	1,837006	3,918457
0,610000	2,048645	3,822784
0,611000	1,812439	4,313354
0,612000	1,813507	4,547424
0,613000	1,813202	4,999847
0,614000	1,847382	4,999847
0,615000	2,065430	4,999847
0,616000	1,905365	4,999847
0,617000	2,029572	4,999847
0,618000	1,963196	4,999847
0,619000	1,997986	4,667511
0,620000	2,018433	3,108978
0,621000	1,968536	3,969727
0,622000	2,071838	3,661804
0,623000	1,941681	4,999847
0,624000	2,121582	4,999847
0,625000	1,916962	4,999847
0,626000	2,165527	4,999847
0,627000	1,891785	4,999847
0,628000	2,161255	4,999847
0,629000	1,941223	4,037323
0,630000	2,120819	2,733154
0,631000	2,000122	2,169952
0,632000	2,083588	4,999847
0,633000	2,055969	4,999847
0,634000	2,050018	4,999847
0,635000	2,108459	4,999847
0,636000	2,018433	4,999847
0,637000	2,156830	4,999847
0,638000	1,989594	4,999847
0,639000	2,196655	4,999847
0,640000	1,963654	4,360962
0,641000	2,222290	3,218842
0,642000	1,953583	4,089508
0,643000	2,179871	4,999847
0,644000	2,012177	4,999847
0,645000	2,136993	4,999847
0,646000	2,070007	4,999847
0,647000	2,101593	4,999847
0,648000	2,124176	4,942474
0,649000	2,069550	2,979279
0,650000	2,173615	3,584747
0,651000	2,040863	2,985992
0,652000	2,211151	4,999847
0,653000	2,013855	4,999847
0,654000	2,232819	4,999847
0,655000	1,991425	4,999847
0,656000	2,228241	4,999847
0,657000	1,970367	4,999847
0,658000	1,819305	4,999847
0,659000	1,745300	4,398651
0,660000	1,713562	2,550964
0,661000	1,699982	4,391937
0,662000	1,694031	4,490814
0,663000	1,692657	4,806671
0,664000	1,691589	4,999847
0,665000	1,691132	4,999847
0,666000	1,691132	4,999847
0,667000	1,690826	4,999847
0,668000	1,690826	4,831696
0,669000	1,690216	3,477325
0,670000	1,689758	3,164215
0,671000	1,690063	3,284607
0,672000	1,690674	4,999847
0,673000	1,690369	4,999847
0,674000	1,690521	4,999847
0,675000	1,690369	4,999847
0,676000	1,690521	4,999847
0,677000	1,666870	4,999847
0,678000	1,310120	4,999847
0,679000	1,110229	4,626007
0,680000	1,077881	3,369141
0,681000	1,017456	4,446716
0,682000	1,031952	3,793182
0,683000	1,009521	4,999847
0,684000	0,969086	4,999847
0,685000	0,933075	4,999847
0,686000	0,978088	4,999847
0,687000	1,010284	4,999847
0,688000	1,003571	4,390259
0,689000	1,031342	3,808289
0,690000	1,004944	3,577881
0,691000	1,043549	3,546906
0,692000	1,002655	4,950714
0,693000	1,052246	4,999847
0,694000	1,000519	4,999847
0,695000	1,051178	4,999847
0,696000	1,013489	4,999847
0,697000	1,044464	4,999847
0,698000	1,026917	4,999847
0,699000	1,037903	3,887024
0,700000	1,039124	2,847137
0,701000	1,032104	4,746094
0,702000	1,052094	2,774963
0,703000	1,026764	4,999847
0,704000	1,063538	4,999847
0,705000	1,020966	4,999847
0,706000	1,075134	4,999847
0,707000	1,016235	4,999847
0,708000	1,085358	4,593658
0,709000	1,019592	3,585510
0,710000	1,077118	2,701263
0,711000	1,035919	4,999847
0,712000	1,067505	4,223938
0,713000	1,052399	4,999847
0,714000	1,059265	4,999847
0,715000	1,068420	4,999847
0,716000	1,051941	4,999847
0,717000	1,083221	4,999847
0,718000	1,044464	4,999847
0,719000	1,097565	3,366547
0,720000	1,037445	4,044647
0,721000	1,110992	3,492126
0,722000	1,030731	4,062958
0,723000	1,116943	4,990845
0,724000	1,042633	4,999847
0,725000	1,104736	4,999847
0,726000	1,063385	4,999847
0,727000	1,092377	4,999847
0,728000	1,082306	4,999847
0,729000	1,080475	3,558960
0,730000	1,098328	3,739319
0,731000	1,069183	3,451691
0,732000	1,115875	4,579010
0,733000	1,060638	4,999847
0,734000	1,132507	4,999847
0,735000	1,052551	4,999847
0,736000	1,147461	4,999847
0,737000	1,045990	4,999847
0,738000	1,144104	4,674072
0,739000	1,065369	4,009399
0,740000	1,127014	4,847717
0,741000	1,090240	3,686218
0,742000	1,111908	3,448334
0,743000	1,111755	4,729462
0,744000	1,100006	4,999847
0,745000	1,132355	4,999847
0,746000	1,088104	4,999847
0,747000	1,150970	4,999847
0,748000	1,076202	4,882507
0,749000	1,168976	3,497772
0,750000	1,066132	3,492432
0,751000	1,185455	3,008881
0,752000	1,068268	4,793243
0,753000	1,170044	4,999847
0,754000	1,095428	4,999847
0,755000	1,150818	4,999847
0,756000	1,120758	4,999847
0,757000	1,133270	4,999847
0,758000	1,144714	4,999847
0,759000	1,118011	3,485107
0,760000	1,166840	3,220367
0,761000	1,103668	3,876495
0,762000	1,186981	2,642670
0,763000	1,090546	4,999847
0,764000	1,205902	4,999847
0,765000	1,079254	4,999847
0,766000	1,216125	4,999847
0,767000	1,094818	4,999847
0,768000	1,193542	4,999847
0,769000	1,125031	3,220520
0,770000	1,172333	3,817902
0,771000	1,152802	4,709320
0,772000	1,152802	4,994659
0,773000	1,177826	4,999847
0,774000	1,134644	4,999847
0,775000	1,202545	4,999847
0,776000	1,119537	4,999847
0,777000	1,225433	4,999847
0,778000	1,105194	4,999847
0,779000	1,246185	3,845062
0,780000	1,092072	3,447113
0,781000	1,240692	4,766998
0,782000	1,123047	4,178467
0,783000	1,215973	4,999847
0,784000	1,156006	4,999847
0,785000	1,191559	4,999847
0,786000	1,180878	4,999847
0,787000	1,089478	4,999847
0,788000	1,124725	3,911743
0,789000	1,113586	3,049774
0,790000	1,224365	3,322906
0,791000	1,127472	3,634796
0,792000	1,260223	4,145203
0,793000	1,116333	4,999847
0,794000	1,284790	4,999847
0,795000	1,116943	4,999847
0,796000	1,265717	4,999847
0,797000	1,156158	4,999847
0,798000	1,237488	4,787903
0,799000	1,191406	4,230804
0,800000	1,212921	4,228516
0,801000	1,224060	3,027954
0,802000	1,189270	3,708038
0,803000	1,253204	4,999847
0,804000	1,168671	4,999847
0,805000	1,280975	4,999847
0,806000	1,150513	4,999847
0,807000	1,306305	4,999847
0,808000	1,133575	4,543915
0,809000	1,320801	3,167419
0,810000	1,150360	3,127136
0,811000	1,289062	3,509369
0,812000	1,190948	4,999847
0,813000	1,258545	4,999847
0,814000	1,227722	4,999847
0,815000	1,231689	4,999847
0,816000	1,262207	4,999847
0,817000	1,206970	4,999847
0,818000	1,293640	4,999847
0,819000	1,184998	4,291840
0,820000	1,322632	3,644257
0,821000	1,165009	3,762665
0,822000	1,348419	2,893219
0,823000	1,148376	4,999847
0,824000	1,346588	4,999847
0,825000	1,186066	4,999847
0,826000	1,311188	4,999847
0,827000	1,228333	4,999847
0,828000	1,278992	4,999847
0,829000	1,267395	3,937683
0,830000	1,250458	4,035339
0,831000	1,302948	3,268585
0,832000	1,224823	4,011993
0,833000	1,335297	4,999847
0,834000	1,202087	4,999847
0,835000	1,365356	4,999847
0,836000	1,181488	4,999847
0,837000	1,392517	4,999847
0,838000	1,177216	4,774628
0,839000	1,368866	4,657593
0,840000	1,224365	3,807373
0,841000	1,331635	4,462280
0,842000	1,268005	3,725433
0,843000	1,297760	4,999847
0,844000	1,307983	4,999847
0,845000	1,269073	4,999847
0,846000	1,345367	4,999847
0,847000	1,242828	4,999847
0,848000	1,378632	4,065552
0,849000	1,219025	4,128571
0,850000	1,407928	3,565063
0,851000	1,197510	3,933411
0,852000	1,429443	4,999847
0,853000	1,215363	4,999847
0,854000	1,390228	4,999847
0,855000	1,264801	4,999847
0,856000	1,352692	4,999847
0,857000	1,310883	4,999847
0,858000	1,319733	4,976654
0,859000	1,351929	4,182587
0,860000	1,288605	2,587585
0,861000	1,388550	4,629517
0,862000	1,261902	3,717957
0,863000	1,423340	4,999847
0,864000	1,239471	4,999847
0,865000	1,455536	4,999847
0,866000	1,218872	4,999847
0,867000	1,456299	4,999847
0,868000	1,260071	4,355927
0,869000	1,414032	3,810425
0,870000	1,311188	4,415283
0,871000	1,375732	3,140869
0,872000	1,357269	4,999847
0,873000	1,342010	4,999847
0,874000	1,399536	4,999847
0,875000	1,312408	4,999847
0,876000	1,437683	4,999847
0,877000	1,285553	4,999847
0,878000	1,472626	4,959869
0,879000	1,262817	4,403534
0,880000	1,504974	3,206329
0,881000	1,254120	4,999847
0,882000	1,481018	3,676453
0,883000	1,308289	4,837189
0,884000	1,438599	4,999847
0,885000	1,360168	4,999847
0,886000	1,399536	4,999847
0,887000	1,405487	4,999847
0,888000	1,365356	4,239655
0,889000	1,383820	4,025574
0,890000	1,280975	3,376770
0,891000	1,464539	4,962769
0,892000	1,301880	4,999847
0,893000	1,517944	4,999847
0,894000	1,286163	4,999847
0,895000	1,548157	4,999847
0,896000	1,303101	4,999847
0,897000	1,506805	4,999847
0,898000	1,361694	4,768219
0,899000	1,465607	4,267273
0,900000	1,413422	2,865295
0,901000	1,428528	4,409485
0,902000	1,459808	4,052429
0,903000	1,394958	4,904633
0,904000	1,502533	4,999847
0,905000	1,367340	4,999847
0,906000	1,541443	4,999847
0,907000	1,342468	4,999847
0,908000	1,576996	4,401398
0,909000	1,319580	3,552246
0,910000	1,580505	2,388306
0,911000	1,360168	4,523773
0,912000	1,534576	4,999847
0,913000	1,418304	4,999847
0,914000	1,495209	4,999847
0,915000	1,469879	4,999847
0,916000	1,458740	4,999847
0,917000	1,516113	4,999847
0,918000	1,427765	4,716644
0,919000	1,558685	4,202881
0,920000	1,400604	2,696381
0,921000	1,597137	4,321899
0,922000	1,376495	3,643341
0,923000	1,631927	4,999847
0,924000	1,364136	4,999847
0,925000	1,611786	4,999847
0,926000	1,422882	4,999847
0,927000	1,566620	4,999847
0,928000	1,479492	4,110107
0,929000	1,526947	4,376221
0,930000	1,528473	3,267212
0,931000	1,492615	3,959503
0,932000	1,575012	4,999847
0,933000	1,462860	4,999847
0,934000	1,616974	4,999847
0,935000	1,437225	4,999847
0,936000	1,654358	4,999847
0,937000	1,412811	4,999847
0,938000	1,684113	4,999847
0,939000	1,423950	4,999847
0,940000	1,640625	3,792877
0,941000	1,484833	4,123230
0,942000	1,599121	3,760529
0,943000	1,540985	4,999847
0,944000	1,561890	4,999847
0,945000	1,590576	4,999847
0,946000	1,529083	4,999847
0,947000	1,635742	4,999847
0,948000	1,500549	4,999847
0,949000	1,675720	3,012390
0,950000	1,475372	3,544617
0,951000	1,712799	3,404846
0,952000	1,454163	4,999847
0,953000	1,721649	4,999847
0,954000	1,491394	4,999847
0,955000	1,675568	4,999847
0,956000	1,550293	4,999847
0,957000	1,634369	4,999847
0,958000	1,604462	4,999390
0,959000	1,598358	4,372711
0,960000	1,652527	3,532104
0,961000	1,566620	3,298798
0,962000	1,695862	4,415588
0,963000	1,539154	4,999847
0,964000	1,735687	4,999847
0,965000	1,515045	4,999847
0,966000	1,771240	4,999847
0,967000	1,499329	4,999847
0,968000	1,754456	4,357300
0,969000	1,557770	3,755341
0,970000	1,709290	4,041138
0,971000	1,614532	4,326019
0,972000	1,669617	4,571228
0,973000	1,667175	4,999847
0,974000	1,635590	4,999847
0,975000	1,714478	4,999847
0,976000	1,605225	4,999847
0,977000	1,756592	4,999847
0,978000	1,578217	4,999847
0,979000	1,794434	4,275665
0,980000	1,554871	3,613892
0,981000	1,827850	3,097229
0,982000	1,561432	3,661804
0,983000	1,786346	4,999847
0,984000	1,622009	4,999847
0,985000	1,742859	4,999847
0,986000	1,677856	4,999847
0,987000	1,704712	4,999847
0,988000	1,728821	4,999847
0,989000	1,671600	3,291168
0,990000	1,774445	3,077087
0,991000	1,613464	4,898376
0,992000	1,780090	4,999847
0,993000	1,604156	4,999847
0,994000	1,849213	4,999847
0,995000	1,595917	4,999847
0,996000	1,869354	4,999847
0,997000	1,631470	4,999847
0,998000	1,825104	4,999847
0,999000	1,692352	3,597870

