LabVIEW Measurement	
Writer_Version	2
Reader_Version	2
Separator	Tab
Decimal_Separator	,
Multi_Headings	Yes
X_Columns	One
Time_Pref	Absolute
Operator	d.nicolai
Date	2023/11/09
Time	16:37:39,5865123999996968043
***End_of_Header***	
	
Channels	2		
Samples	1000	1000	
Date	2023/11/09	2023/11/09	
Time	16:38:00,7145128999996305264	16:38:00,7145128999996305264	
Y_Unit_Label	Volts	Volts	
X_Dimension	Time	Time	
X0	0,0000000000000000E+0	0,0000000000000000E+0	
Delta_X	0,001000	0,001000	
***End_of_Header***			
X_Value	powebox	triggerbox	Comment
0,000000	1,664276	0,579376
0,001000	1,664429	4,999847
0,002000	1,664276	4,999847
0,003000	1,664276	4,999847
0,004000	1,664276	4,999847
0,005000	1,663818	4,999847
0,006000	1,664124	3,481140
0,007000	1,663818	4,275818
0,008000	1,663513	4,836121
0,009000	1,663513	4,999847
0,010000	1,663361	4,999847
0,011000	1,574249	4,999847
0,012000	1,237183	4,999847
0,013000	1,067657	4,999847
0,014000	1,040039	4,999847
0,015000	1,003113	4,472809
0,016000	1,007996	3,863220
0,017000	1,000977	3,796082
0,018000	0,999603	4,999847
0,019000	1,008301	4,999847
0,020000	0,994873	4,999847
0,021000	1,016693	4,999847
0,022000	0,991974	4,999847
0,023000	1,025391	4,999847
0,024000	0,988464	4,853821
0,025000	1,033936	4,153290
0,026000	0,985413	3,633728
0,027000	1,034698	4,232635
0,028000	0,996857	4,999847
0,029000	1,027679	4,983673
0,030000	1,009674	4,999847
0,031000	1,021881	4,999847
0,032000	1,021729	4,999847
0,033000	1,015778	4,999847
0,034000	1,033173	4,895782
0,035000	1,010132	4,576416
0,036000	1,044464	3,824463
0,037000	1,005096	4,160919
0,038000	1,054840	4,999847
0,039000	1,000671	4,999847
0,040000	1,065063	4,999847
0,041000	1,000366	4,999847
0,042000	1,059113	4,999847
0,043000	1,017151	4,999847
0,044000	1,049042	4,999847
0,045000	1,032410	4,999847
0,046000	1,040497	3,245392
0,047000	1,047211	4,999847
0,048000	1,032104	4,777069
0,049000	1,061554	4,535828
0,050000	1,024933	4,999847
0,051000	1,074524	4,999847
0,052000	1,018219	4,999847
0,053000	1,087036	4,999847
0,054000	1,011963	4,999847
0,055000	1,096191	4,411774
0,056000	1,020355	3,592224
0,057000	1,083679	3,856506
0,058000	1,040344	4,999847
0,059000	1,071320	4,999847
0,060000	1,059570	4,999847
0,061000	1,059723	4,999847
0,062000	1,077118	4,999847
0,063000	1,049957	4,999847
0,064000	1,094055	4,999847
0,065000	1,040497	4,999847
0,066000	1,109924	3,411102
0,067000	1,032104	4,199982
0,068000	1,124268	4,647522
0,069000	1,024323	4,999847
0,070000	1,124878	4,999847
0,071000	1,043701	4,999847
0,072000	1,107788	4,999847
0,073000	1,067200	4,999847
0,074000	1,092224	4,837341
0,075000	1,088867	4,951477
0,076000	1,078949	3,317566
0,077000	1,109314	3,965302
0,078000	1,065979	4,999847
0,079000	1,128082	4,999847
0,080000	1,054535	4,999847
0,081000	1,145477	4,999847
0,082000	1,045074	4,999847
0,083000	1,162109	4,999847
0,084000	1,042175	4,999847
0,085000	1,150818	4,999847
0,086000	1,069946	3,317261
0,087000	1,130676	4,999847
0,088000	1,096802	4,252625
0,089000	1,112976	4,999847
0,090000	1,120148	4,999847
0,091000	1,095734	4,999847
0,092000	1,143341	4,999847
0,093000	1,081696	4,999847
0,094000	1,164246	4,999847
0,095000	1,068420	4,101410
0,096000	1,183319	3,218536
0,097000	1,057739	4,993439
0,098000	1,198120	4,999847
0,099000	1,067810	4,999847
0,100000	1,174927	4,999847
0,101000	1,098938	4,999847
0,102000	1,152039	4,999847
0,103000	1,128387	4,999847
0,104000	1,131287	4,999847
0,105000	1,155396	4,757538
0,106000	1,113281	3,471527
0,107000	1,180115	4,942322
0,108000	1,096954	3,932495
0,109000	1,203156	4,999847
0,110000	1,082306	4,999847
0,111000	1,223907	4,999847
0,112000	1,069183	4,999847
0,113000	1,226044	4,999847
0,114000	1,096344	4,999847
0,115000	1,198273	4,717255
0,116000	1,130829	2,326508
0,117000	1,172943	4,953003
0,118000	1,163025	4,999847
0,119000	1,149750	4,999847
0,120000	1,191864	4,999847
0,121000	1,129150	4,999847
0,122000	1,218567	4,999847
0,123000	1,111908	4,999847
0,124000	1,243286	4,999847
0,125000	1,095123	4,288025
0,126000	1,265259	3,398895
0,127000	1,088257	4,999847
0,128000	1,250610	3,785248
0,129000	1,127930	4,999847
0,130000	1,219025	4,999847
0,131000	1,165161	4,999847
0,132000	1,191406	4,999847
0,133000	1,197662	4,999847
0,134000	1,335449	4,999847
0,135000	1,386414	3,566284
0,136000	1,409760	3,239899
0,137000	1,142578	3,159180
0,138000	1,292267	4,999847
0,139000	1,139832	4,999847
0,140000	1,242981	4,999847
0,141000	1,174011	4,999847
0,142000	1,210632	4,999847
0,143000	1,209259	4,999847
0,144000	1,183624	4,999847
0,145000	1,242065	4,097443
0,146000	1,159821	3,467712
0,147000	1,272736	4,999847
0,148000	1,139221	4,112854
0,149000	1,299744	4,999847
0,150000	1,120300	4,999847
0,151000	1,325073	4,999847
0,152000	1,121674	4,999847
0,153000	1,296539	4,999847
0,154000	1,167603	4,999847
0,155000	1,260376	3,926086
0,156000	1,210175	2,947388
0,157000	1,228790	3,922119
0,158000	1,249084	4,999847
0,159000	1,200562	4,999847
0,160000	1,283264	4,999847
0,161000	1,175385	4,999847
0,162000	1,314850	4,999847
0,163000	1,153717	4,999847
0,164000	1,343842	4,999847
0,165000	1,134338	4,999847
0,166000	1,358490	3,416290
0,167000	1,157379	4,999847
0,168000	1,317749	4,839783
0,169000	1,206207	4,999847
0,170000	1,280060	4,999847
0,171000	1,250153	4,999847
0,172000	1,246643	4,999847
0,173000	1,290283	4,999847
0,174000	1,217346	4,999847
0,175000	1,326447	4,245911
0,176000	1,191559	3,523254
0,177000	1,358948	3,731079
0,178000	1,168671	4,999847
0,179000	1,388702	4,999847
0,180000	1,149445	4,999847
0,181000	1,381989	4,999847
0,182000	1,196594	4,999847
0,183000	1,338348	4,999847
0,184000	1,247711	4,999847
0,185000	1,299591	3,874512
0,186000	1,292877	3,758240
0,187000	1,265411	4,999847
0,188000	1,333923	3,648834
0,189000	1,235046	4,999847
0,190000	1,371155	4,999847
0,191000	1,208496	4,999847
0,192000	1,404114	4,999847
0,193000	1,185150	4,999847
0,194000	1,435089	4,999847
0,195000	1,182709	4,164886
0,196000	1,403198	3,510590
0,197000	1,239166	4,367371
0,198000	1,358337	4,999847
0,199000	1,291656	4,999847
0,200000	1,318970	4,999847
0,201000	1,338501	4,999847
0,202000	1,284180	4,999847
0,203000	1,380463	4,999847
0,204000	1,253662	4,999847
0,205000	1,418152	4,694366
0,206000	1,227264	3,787384
0,207000	1,452789	4,740601
0,208000	1,204529	4,034424
0,209000	1,473541	4,999847
0,210000	1,226959	4,999847
0,211000	1,425171	4,999847
0,212000	1,285858	4,999847
0,213000	1,379700	4,999847
0,214000	1,338959	4,999847
0,215000	1,340027	4,293671
0,216000	1,386719	3,509064
0,217000	1,305542	3,949890
0,218000	1,429291	4,974518
0,219000	1,275177	4,999847
0,220000	1,468201	4,999847
0,221000	1,249237	4,999847
0,222000	1,502380	4,999847
0,223000	1,226044	4,999847
0,224000	1,499634	4,999847
0,225000	1,277313	4,999847
0,226000	1,448212	4,089508
0,227000	1,337128	4,890594
0,228000	1,403198	3,311310
0,229000	1,390533	4,999847
0,230000	1,364288	4,999847
0,231000	1,438141	4,999847
0,232000	1,329956	4,999847
0,233000	1,481171	4,999847
0,234000	1,300507	4,981537
0,235000	1,520081	4,502563
0,236000	1,275177	3,716736
0,237000	1,554565	3,735809
0,238000	1,267548	4,899750
0,239000	1,523895	4,999847
0,240000	1,332397	4,999847
0,241000	1,473694	4,999847
0,242000	1,392059	4,999847
0,243000	1,429138	4,999847
0,244000	1,445770	4,999847
0,245000	1,391144	4,818420
0,246000	1,493683	3,882446
0,247000	1,357880	4,280701
0,248000	1,536255	4,341888
0,249000	1,329346	4,999847
0,250000	1,574707	4,999847
0,251000	1,304932	4,999847
0,252000	1,601868	4,999847
0,253000	1,325836	4,999847
0,254000	1,550293	4,999847
0,255000	1,392059	4,280853
0,256000	1,500854	3,558655
0,257000	1,451111	3,950806
0,258000	1,458130	4,999847
0,259000	1,503906	4,999847
0,260000	1,421814	4,999847
0,261000	1,551056	4,999847
0,262000	1,389771	4,999847
0,263000	1,593475	4,999847
0,264000	1,362915	4,999847
0,265000	1,631622	4,683838
0,266000	1,339264	3,716431
0,267000	1,633301	4,627228
0,268000	1,389160	4,646149
0,269000	1,578827	4,999847
0,270000	1,454620	4,999847
0,271000	1,531677	4,999847
0,272000	1,513062	4,999847
0,273000	1,490631	4,999847
0,274000	1,564636	4,999847
0,275000	1,455536	4,582062
0,276000	1,611023	3,653107
0,277000	1,425171	4,013824
0,278000	1,652679	4,999847
0,279000	1,399231	4,999847
0,280000	1,689758	4,999847
0,281000	1,387787	4,999847
0,282000	1,662292	4,999847
0,283000	1,455536	4,999847
0,284000	1,609802	4,631805
0,285000	1,519165	4,605560
0,286000	1,564331	4,165039
0,287000	1,576080	4,139404
0,288000	1,525574	4,488373
0,289000	1,626740	4,999847
0,290000	1,491699	4,999847
0,291000	1,671906	4,999847
0,292000	1,463013	4,999847
0,293000	1,712189	4,999847
0,294000	1,438446	4,735565
0,295000	1,741638	3,874359
0,296000	1,453705	3,438416
0,297000	1,692352	3,770447
0,298000	1,523132	4,999847
0,299000	1,641541	4,999847
0,300000	1,585083	4,999847
0,301000	1,599121	4,999847
0,302000	1,640472	4,999847
0,303000	1,561584	4,999847
0,304000	1,689148	4,999847
0,305000	1,529846	4,999847
0,306000	1,733704	3,594513
0,307000	1,502686	3,648682
0,308000	1,772919	3,992004
0,309000	1,478882	4,999847
0,310000	1,778412	4,999847
0,311000	1,524200	4,999847
0,312000	1,723785	4,999847
0,313000	1,591339	4,999847
0,314000	1,676025	4,999847
0,315000	1,651154	4,999847
0,316000	1,634674	3,307800
0,317000	1,704865	3,291626
0,318000	1,599426	4,999847
0,319000	1,752625	4,999847
0,320000	1,569214	4,999847
0,321000	1,795197	4,999847
0,322000	1,542969	4,999847
0,323000	1,833496	4,999847
0,324000	1,526337	4,999847
0,325000	1,809998	4,999847
0,326000	1,594238	3,634491
0,327000	1,757202	4,999847
0,328000	1,659393	4,267883
0,329000	1,712189	4,999847
0,330000	1,717529	4,999847
0,331000	1,672668	4,999847
0,332000	1,769562	4,999847
0,333000	1,639252	4,999847
0,334000	1,815948	4,999847
0,335000	1,610565	4,173889
0,336000	1,857910	3,235168
0,337000	1,586456	3,163605
0,338000	1,895142	4,999847
0,339000	1,596375	4,999847
0,340000	1,847534	4,999847
0,341000	1,666565	4,999847
0,342000	1,797485	4,999847
0,343000	1,730194	4,999847
0,344000	1,754608	4,999847
0,345000	1,786041	4,999847
0,346000	1,717377	3,640900
0,347000	1,836243	3,862305
0,348000	1,685181	4,246826
0,349000	1,882324	4,999847
0,350000	1,657715	4,999847
0,351000	1,926270	4,999847
0,352000	1,634369	4,999847
0,353000	1,942749	4,999847
0,354000	1,673584	4,999847
0,355000	1,892242	4,999847
0,356000	1,741333	2,981110
0,357000	1,845856	3,854218
0,358000	1,802063	4,999847
0,359000	1,804352	4,999847
0,360000	1,856537	4,999847
0,361000	1,768646	4,999847
0,362000	1,907349	4,999847
0,363000	1,737366	4,999847
0,364000	1,955872	4,999847
0,365000	1,711121	4,999847
0,366000	2,002563	3,447876
0,367000	1,689606	4,999847
0,368000	1,992340	4,024506
0,369000	1,754456	4,999847
0,370000	1,945801	4,999847
0,371000	1,819763	4,999847
0,372000	1,902924	4,999847
0,373000	1,878510	4,999847
0,374000	1,864471	4,999847
0,375000	1,934357	4,704742
0,376000	1,829071	3,047485
0,377000	1,987762	4,476013
0,378000	1,798706	4,999847
0,379000	2,039032	4,999847
0,380000	1,772461	4,999847
0,381000	2,087555	4,999847
0,382000	1,774292	4,999847
0,383000	2,051086	4,999847
0,384000	1,842804	4,999847
0,385000	2,008209	4,999847
0,386000	1,906738	3,492279
0,387000	1,969452	4,999847
0,388000	1,968079	3,658600
0,389000	1,935120	4,890900
0,390000	2,026978	4,999847
0,391000	1,902924	4,999847
0,392000	2,082825	4,999847
0,393000	1,874542	4,999847
0,394000	2,136230	4,999847
0,395000	1,848755	4,560089
0,396000	2,165070	2,766266
0,397000	1,876831	3,567505
0,398000	2,121429	4,999847
0,399000	1,947327	4,999847
0,400000	2,084198	4,999847
0,401000	2,014008	4,999847
0,402000	2,048950	4,999847
0,403000	2,077179	4,999847
0,404000	2,016296	4,999847
0,405000	2,136383	4,999847
0,406000	1,986389	3,643494
0,407000	2,192841	4,360046
0,408000	1,958923	4,680176
0,409000	2,243958	4,999847
0,410000	1,931915	4,999847
0,411000	2,238007	4,999847
0,412000	1,990509	4,999847
0,413000	2,193298	4,999847
0,414000	2,057953	4,999847
0,415000	2,152100	4,480896
0,416000	2,120819	2,452850
0,417000	2,114105	4,062500
0,418000	2,180023	4,813995
0,419000	2,078857	4,999847
0,420000	2,234802	4,999847
0,421000	2,046661	4,999847
0,422000	2,282410	4,999847
0,423000	2,017212	4,999847
0,424000	2,315521	4,999847
0,425000	2,008362	4,999847
0,426000	2,268066	3,347931
0,427000	1,965790	4,013977
0,428000	1,788635	3,225861
0,429000	1,712799	4,999847
0,430000	1,683655	4,999847
0,431000	1,672363	4,999847
0,432000	1,667938	4,999847
0,433000	1,666107	4,999847
0,434000	1,665344	4,999847
0,435000	1,665039	4,917755
0,436000	1,664734	3,045197
0,437000	1,664276	4,138489
0,438000	1,664581	4,690247
0,439000	1,664581	4,999847
0,440000	1,664276	4,999847
0,441000	1,663971	4,999847
0,442000	1,663818	4,999847
0,443000	1,663971	4,999847
0,444000	1,664276	4,999847
0,445000	1,663818	4,973907
0,446000	1,663361	3,838348
0,447000	1,663361	4,381409
0,448000	1,663666	3,799286
0,449000	1,406860	4,999847
0,450000	1,150055	4,999847
0,451000	1,059875	4,999847
0,452000	1,013031	4,999847
0,453000	1,016541	4,999847
0,454000	0,990295	4,999847
0,455000	1,016998	4,990082
0,456000	0,985413	2,749786
0,457000	1,023407	3,174133
0,458000	0,982056	4,999847
0,459000	1,025848	4,999847
0,460000	0,990753	4,999847
0,461000	1,019592	4,999847
0,462000	1,001892	4,999847
0,463000	1,014404	4,999847
0,464000	1,012573	4,999847
0,465000	1,008453	4,999847
0,466000	1,023560	3,166199
0,467000	1,004181	4,999847
0,468000	1,033783	2,995148
0,469000	1,000824	4,999847
0,470000	1,044006	4,999847
0,471000	0,995941	4,999847
0,472000	1,053314	4,999847
0,473000	0,995178	4,999847
0,474000	1,050262	4,999847
0,475000	1,009216	4,559326
0,476000	1,041718	3,029785
0,477000	1,023712	4,154358
0,478000	1,033630	4,204102
0,479000	1,037750	4,999847
0,480000	1,025848	4,999847
0,481000	1,050262	4,999847
0,482000	1,018829	4,999847
0,483000	1,063080	4,999847
0,484000	1,013031	4,999847
0,485000	1,074677	4,999847
0,486000	1,007385	3,632660
0,487000	1,084595	4,537811
0,488000	1,013031	3,487244
0,489000	1,074066	4,585419
0,490000	1,031494	4,999847
0,491000	1,062469	4,999847
0,492000	1,048737	4,999847
0,493000	1,052399	4,999847
0,494000	1,065826	4,999847
0,495000	1,043091	4,075775
0,496000	1,081543	3,517303
0,497000	1,034851	4,648590
0,498000	1,096497	4,967194
0,499000	1,027069	4,999847
0,500000	1,109467	4,999847
0,501000	1,019287	4,999847
0,502000	1,114349	4,999847
0,503000	1,035461	4,999847
0,504000	1,099701	4,999847
0,505000	1,057434	4,906769
0,506000	1,084442	3,522797
0,507000	1,078033	4,062958
0,508000	1,071777	3,429260
0,509000	1,097260	4,999847
0,510000	1,060028	4,999847
0,511000	1,115417	4,999847
0,512000	1,049652	4,999847
0,513000	1,131897	4,999847
0,514000	1,040497	4,999847
0,515000	1,147919	4,971313
0,516000	1,035156	3,178253
0,517000	1,141052	3,098297
0,518000	1,060638	4,602051
0,519000	1,122131	4,999847
0,520000	1,085815	4,999847
0,521000	1,105347	4,999847
0,522000	1,109924	4,999847
0,523000	1,090240	4,999847
0,524000	1,131134	4,999847
0,525000	1,076202	4,901428
0,526000	1,151276	3,610687
0,527000	1,063690	4,584503
0,528000	1,169586	3,313141
0,529000	1,053009	4,999847
0,530000	1,186371	4,999847
0,531000	1,058807	4,999847
0,532000	1,165771	4,999847
0,533000	1,089020	4,999847
0,534000	1,143799	4,999847
0,535000	1,116943	4,562531
0,536000	1,124420	3,169098
0,537000	1,142731	4,427032
0,538000	1,107178	4,449768
0,539000	1,166382	4,999847
0,540000	1,091156	4,999847
0,541000	1,188507	4,999847
0,542000	1,077728	4,999847
0,543000	1,209412	4,999847
0,544000	1,065369	4,999847
0,545000	1,215973	4,981384
0,546000	1,085358	3,709259
0,547000	1,189117	4,557343
0,548000	1,119385	4,381256
0,549000	1,165009	4,999847
0,550000	1,150513	4,999847
0,551000	1,143341	4,999847
0,552000	1,179199	4,999847
0,553000	1,123810	4,999847
0,554000	1,204987	4,999847
0,555000	1,106262	4,719391
0,556000	1,228485	3,739624
0,557000	1,091003	3,631897
0,558000	1,250305	4,794769
0,559000	1,079865	4,999847
0,560000	1,241302	4,999847
0,561000	1,116791	4,999847
0,562000	1,210937	4,999847
0,563000	1,152802	4,999847
0,564000	1,184082	4,999847
0,565000	1,186523	4,999847
0,566000	1,160278	3,648529
0,567000	1,216278	4,555206
0,568000	1,139526	4,397278
0,569000	1,244659	4,999847
0,570000	1,120453	4,999847
0,571000	1,266327	4,999847
0,572000	1,360779	4,999847
0,573000	1,398773	4,999847
0,574000	1,221008	4,999847
0,575000	1,270447	4,802551
0,576000	1,142120	3,483276
0,577000	1,275482	4,138184
0,578000	1,116028	4,999847
0,579000	1,296997	4,999847
0,580000	1,102142	4,999847
0,581000	1,286011	4,999847
0,582000	1,142883	4,999847
0,583000	1,251221	4,999847
0,584000	1,184235	4,999847
0,585000	1,219940	4,999847
0,586000	1,221161	3,658447
0,587000	1,192474	4,999847
0,588000	1,255493	3,318787
0,589000	1,168365	4,999847
0,590000	1,286469	4,999847
0,591000	1,146393	4,999847
0,592000	1,314240	4,999847
0,593000	1,127777	4,999847
0,594000	1,340332	4,999847
0,595000	1,131744	4,999847
0,596000	1,308441	3,682556
0,597000	1,179047	4,077148
0,598000	1,271210	4,999847
0,599000	1,222534	4,999847
0,600000	1,238251	4,999847
0,601000	1,261597	4,999847
0,602000	1,210175	4,999847
0,603000	1,297607	4,999847
0,604000	1,184540	4,994202
0,605000	1,329498	4,999847
0,606000	1,161194	3,687592
0,607000	1,358337	4,732513
0,608000	1,141510	4,032593
0,609000	1,371460	4,439545
0,610000	1,167603	4,999847
0,611000	1,329041	4,999847
0,612000	1,217804	4,999847
0,613000	1,290131	4,999847
0,614000	1,263123	4,999847
0,615000	1,256866	4,999847
0,616000	1,303558	3,428040
0,617000	1,226196	3,807831
0,618000	1,340332	4,830170
0,619000	1,200104	4,999847
0,620000	1,373596	4,999847
0,621000	1,176758	4,999847
0,622000	1,403809	4,999847
0,623000	1,157684	4,999847
0,624000	1,394348	4,999847
0,625000	1,207733	4,999847
0,626000	1,349335	3,535461
0,627000	1,259613	2,647247
0,628000	1,310272	3,882751
0,629000	1,306458	4,999847
0,630000	1,274719	4,999847
0,631000	1,348267	4,999847
0,632000	1,243896	4,999847
0,633000	1,385803	4,999847
0,634000	1,217346	4,999847
0,635000	1,420441	4,999847
0,636000	1,194611	3,134460
0,637000	1,451416	2,276001
0,638000	1,194916	4,999847
0,639000	1,416168	4,999847
0,640000	1,252289	4,999847
0,641000	1,370544	4,999847
0,642000	1,305695	4,999847
0,643000	1,330261	4,999847
0,644000	1,352386	4,999847
0,645000	1,295013	4,999847
0,646000	1,395569	3,412781
0,647000	1,264038	4,849396
0,648000	1,433868	3,701477
0,649000	1,237640	4,757080
0,650000	1,468811	4,999847
0,651000	1,214600	4,999847
0,652000	1,487732	4,999847
0,653000	1,240845	4,999847
0,654000	1,438141	4,999847
0,655000	1,301117	4,999847
0,656000	1,392059	3,305511
0,657000	1,354675	2,747040
0,658000	1,352844	4,710999
0,659000	1,402588	4,999847
0,660000	1,317444	4,999847
0,661000	1,445923	4,999847
0,662000	1,286926	4,999847
0,663000	1,484222	4,999847
0,664000	1,260376	4,999847
0,665000	1,519928	4,999847
0,666000	1,237488	3,830872
0,667000	1,512909	4,421844
0,668000	1,293182	3,735504
0,669000	1,461487	4,999847
0,670000	1,353149	4,999847
0,671000	1,416321	4,999847
0,672000	1,406860	4,999847
0,673000	1,376953	4,999847
0,674000	1,455231	4,999847
0,675000	1,342926	4,999847
0,676000	1,498718	3,080750
0,677000	1,313477	4,844666
0,678000	1,538086	4,207916
0,679000	1,288147	4,999847
0,680000	1,572876	4,999847
0,681000	1,284027	4,999847
0,682000	1,538544	4,999847
0,683000	1,349640	4,999847
0,684000	1,488190	4,999847
0,685000	1,409607	4,999847
0,686000	1,443481	3,986359
0,687000	1,463318	4,610596
0,688000	1,405182	3,499908
0,689000	1,511993	4,566803
0,690000	1,372375	4,999847
0,691000	1,554565	4,999847
0,692000	1,343842	4,999847
0,693000	1,593018	4,999847
0,694000	1,319427	4,999847
0,695000	1,617889	4,842987
0,696000	1,343842	3,292542
0,697000	1,565094	3,212433
0,698000	1,410217	4,568024
0,699000	1,515656	4,999847
0,700000	1,469727	4,999847
0,701000	1,473694	4,999847
0,702000	1,522827	4,999847
0,703000	1,437073	4,999847
0,704000	1,569977	4,999847
0,705000	1,404114	4,999847
0,706000	1,612396	3,806000
0,707000	1,378021	3,771362
0,708000	1,650848	4,216766
0,709000	1,354675	4,720154
0,710000	1,648865	4,999847
0,711000	1,408844	4,999847
0,712000	1,594849	4,999847
0,713000	1,474304	4,999847
0,714000	1,547699	4,999847
0,715000	1,532288	4,999847
0,716000	1,506958	3,771515
0,717000	1,584167	3,658752
0,718000	1,471710	4,999847
0,719000	1,630554	4,999847
0,720000	1,441956	4,999847
0,721000	1,672211	4,999847
0,722000	1,416473	4,999847
0,723000	1,709595	4,999847
0,724000	1,407471	4,999847
0,725000	1,678162	4,999847
0,726000	1,475830	3,830261
0,727000	1,625824	3,292084
0,728000	1,539764	4,651794
0,729000	1,580658	4,394073
0,730000	1,596375	4,999847
0,731000	1,542206	4,999847
0,732000	1,646729	4,999847
0,733000	1,508789	4,999847
0,734000	1,692047	4,999847
0,735000	1,480255	4,999847
0,736000	1,732788	3,582306
0,737000	1,455841	4,295502
0,738000	1,761322	3,820953
0,739000	1,475067	4,999847
0,740000	1,708832	4,999847
0,741000	1,544037	4,999847
0,742000	1,658630	4,999847
0,743000	1,605988	4,999847
0,744000	1,615753	4,999847
0,745000	1,660767	4,999847
0,746000	1,578979	4,073181
0,747000	1,709900	4,452057
0,748000	1,546936	3,363647
0,749000	1,753387	4,954071
0,750000	1,519928	4,999847
0,751000	1,793060	4,999847
0,752000	1,496735	4,999847
0,753000	1,794739	4,999847
0,754000	1,545258	4,999847
0,755000	1,740570	4,382629
0,756000	1,612396	3,662872
0,757000	1,692963	3,742828
0,758000	1,672058	4,953308
0,759000	1,651764	4,999847
0,760000	1,725464	4,999847
0,761000	1,616364	4,999847
0,762000	1,772919	4,999847
0,763000	1,586914	4,999847
0,764000	1,815491	4,999847
0,765000	1,560669	4,954529
0,766000	1,853943	3,450317
0,767000	1,547394	3,575287
0,768000	1,827698	3,793030
0,769000	1,615906	4,590912
0,770000	1,775513	4,999847
0,771000	1,681366	4,999847
0,772000	1,730347	4,999847
0,773000	1,739044	4,999847
0,774000	1,691895	4,999847
0,775000	1,790619	4,999847
0,776000	1,658325	3,556671
0,777000	1,836700	2,943420
0,778000	1,630096	4,195709
0,779000	1,879730	4,999847
0,780000	1,606140	4,999847
0,781000	1,916504	4,999847
0,782000	1,618958	4,999847
0,783000	1,867676	4,999847
0,784000	1,689758	4,999847
0,785000	1,818390	4,936371
0,786000	1,752319	4,558716
0,787000	1,775513	4,434662
0,788000	1,808319	2,851868
0,789000	1,738281	4,999847
0,790000	1,858063	4,999847
0,791000	1,706085	4,999847
0,792000	1,905365	4,999847
0,793000	1,679077	4,999847
0,794000	1,950989	4,999847
0,795000	1,655884	4,629517
0,796000	1,964569	3,847351
0,797000	1,697998	4,417267
0,798000	1,915741	4,075928
0,799000	1,765442	4,999847
0,800000	1,870575	4,999847
0,801000	1,826324	4,999847
0,802000	1,829224	4,999847
0,803000	1,880341	4,999847
0,804000	1,793060	4,999847
0,805000	1,932373	4,752350
0,806000	1,761627	4,363556
0,807000	1,979828	4,824829
0,808000	1,733704	3,156128
0,809000	2,029724	4,804230
0,810000	1,715546	4,999847
0,811000	2,017365	4,999847
0,812000	1,781921	4,999847
0,813000	1,971741	4,999847
0,814000	1,846313	4,999847
0,815000	1,930084	4,812927
0,816000	1,906281	3,721466
0,817000	1,892853	3,255005
0,818000	1,963043	3,592834
0,819000	1,858978	4,999847
0,820000	2,017975	4,999847
0,821000	1,828156	4,999847
0,822000	2,070160	4,999847
0,823000	1,801300	4,999847
0,824000	2,118378	4,999847
0,825000	1,806030	4,846039
0,826000	2,079926	4,807434
0,827000	1,874084	4,292145
0,828000	2,038574	3,334961
0,829000	1,939545	4,928131
0,830000	2,001190	4,999847
0,831000	2,002411	4,999847
0,832000	1,967468	4,999847
0,833000	2,062531	4,999847
0,834000	1,936951	4,999847
0,835000	2,119751	4,645233
0,836000	1,908875	4,084778
0,837000	2,173920	2,904053
0,838000	1,884155	4,442444
0,839000	2,199097	4,900970
0,840000	1,917267	4,999847
0,841000	2,156830	4,999847
0,842000	1,986542	4,999847
0,843000	2,117462	4,999847
0,844000	2,052765	4,999847
0,845000	2,080994	4,891052
0,846000	2,114868	4,922638
0,847000	2,047577	4,078674
0,848000	2,173309	4,777222
0,849000	2,016754	4,963226
0,850000	2,227325	4,999847
0,851000	1,987610	4,999847
0,852000	2,274780	4,999847
0,853000	1,961060	4,999847
0,854000	2,259674	4,999847
0,855000	2,020874	4,546661
0,856000	2,212219	3,543701
0,857000	2,087555	3,370209
0,858000	2,169495	4,999847
0,859000	2,149353	4,999847
0,860000	2,130890	4,999847
0,861000	2,207489	4,999847
0,862000	2,095642	4,999847
0,863000	2,260590	4,999847
0,864000	2,063141	4,999847
0,865000	1,844025	4,999847
0,866000	1,733704	4,312439
0,867000	1,692047	4,898834
0,868000	1,674805	3,792114
0,869000	1,668701	4,453888
0,870000	1,666107	4,999847
0,871000	1,665192	4,999847
0,872000	1,665192	4,999847
0,873000	1,664429	4,999847
0,874000	1,664276	4,999847
0,875000	1,663971	4,715271
0,876000	1,664276	3,939972
0,877000	1,664124	3,669891
0,878000	1,663971	3,730469
0,879000	1,663513	4,999847
0,880000	1,663666	4,999847
0,881000	1,663513	4,999847
0,882000	1,663513	4,999847
0,883000	1,663818	4,999847
0,884000	1,663666	4,999847
0,885000	1,663818	4,999847
0,886000	1,663208	3,947449
0,887000	1,661377	3,713989
0,888000	1,271820	3,125610
0,889000	1,079712	4,322205
0,890000	1,054230	4,999847
0,891000	0,996246	4,999847
0,892000	1,017456	4,999847
0,893000	0,992584	4,999847
0,894000	1,007385	4,999847
0,895000	1,000366	4,969788
0,896000	1,002808	3,908386
0,897000	1,009369	3,449860
0,898000	0,998230	4,851990
0,899000	1,018524	4,999847
0,900000	0,994873	4,999847
0,901000	1,027527	4,999847
0,902000	0,992126	4,999847
0,903000	1,036530	4,999847
0,904000	0,988159	4,999847
0,905000	1,040955	4,999847
0,906000	0,996704	3,742371
0,907000	1,033325	2,673340
0,908000	1,009674	4,999847
0,909000	1,027527	4,025574
0,910000	1,023102	4,999847
0,911000	1,020508	4,999847
0,912000	1,034851	4,999847
0,913000	1,014099	4,999847
0,914000	1,045990	4,999847
0,915000	1,008148	4,999847
0,916000	1,056976	3,555450
0,917000	1,002960	3,978882
0,918000	1,067352	3,627777
0,919000	1,000519	4,999847
0,920000	1,065521	4,999847
0,921000	1,015778	4,999847
0,922000	1,055145	4,999847
0,923000	1,032410	4,999847
0,924000	1,045685	4,999847
0,925000	1,047974	4,999847
0,926000	1,037445	3,817139
0,927000	1,062469	3,996887
0,928000	1,029205	3,823242
0,929000	1,076508	4,754181
0,930000	1,022797	4,999847
0,931000	1,090240	4,999847
0,932000	1,015015	4,999847
0,933000	1,102448	4,999847
0,934000	1,018524	4,999847
0,935000	1,091766	4,999847
0,936000	1,039276	3,491669
0,937000	1,078644	2,484589
0,938000	1,059418	4,650116
0,939000	1,065979	4,999847
0,940000	1,078033	4,999847
0,941000	1,054993	4,999847
0,942000	1,094513	4,999847
0,943000	1,045380	4,999847
0,944000	1,110840	4,999847
0,945000	1,036072	4,999847
0,946000	1,125793	4,441681
0,947000	1,028595	3,041992
0,948000	1,133728	4,999847
0,949000	1,041107	4,653778
0,950000	1,116028	4,999847
0,951000	1,065521	4,999847
0,952000	1,100159	4,999847
0,953000	1,088562	4,999847
0,954000	1,085663	4,999847
0,955000	1,110077	4,999847
0,956000	1,072083	3,692169
0,957000	1,128540	2,735443
0,958000	1,060181	4,999847
0,959000	1,146851	4,031677
0,960000	1,049500	4,999847
0,961000	1,164093	4,999847
0,962000	1,040497	4,999847
0,963000	1,160583	4,999847
0,964000	1,067200	4,999847
0,965000	1,139374	4,999847
0,966000	1,094818	4,034576
0,967000	1,120300	4,303436
0,968000	1,119690	3,417816
0,969000	1,103210	3,802032
0,970000	1,143341	4,999847
0,971000	1,088104	4,999847
0,972000	1,164703	4,999847
0,973000	1,074371	4,999847
0,974000	1,184845	4,999847
0,975000	1,062012	4,999847
0,976000	1,203156	3,198547
0,977000	1,062775	3,636017
0,978000	1,185150	4,684448
0,979000	1,095886	4,690399
0,980000	1,161041	4,999847
0,981000	1,125641	4,999847
0,982000	1,139374	4,999847
0,983000	1,153870	4,999847
0,984000	1,120453	4,999847
0,985000	1,179810	4,999847
0,986000	1,103363	3,803253
0,987000	1,203461	3,282013
0,988000	1,088104	4,846649
0,989000	1,225433	4,018860
0,990000	1,073914	4,999847
0,991000	1,237488	4,999847
0,992000	1,091003	4,999847
0,993000	1,208649	4,999847
0,994000	1,126862	4,999847
0,995000	1,181946	4,575958
0,996000	1,160278	2,974091
0,997000	1,157990	2,969666
0,998000	1,190491	4,999847
0,999000	1,137390	4,395905

