LabVIEW Measurement	
Writer_Version	2
Reader_Version	2
Separator	Tab
Decimal_Separator	,
Multi_Headings	Yes
X_Columns	One
Time_Pref	Absolute
Operator	d.nicolai
Date	2023/11/09
Time	16:37:39,5865123999996968043
***End_of_Header***	
	
Channels	2		
Samples	1000	1000	
Date	2023/11/09	2023/11/09	
Time	16:37:45,7615128999996061901	16:37:45,7615128999996061901	
Y_Unit_Label	Volts	Volts	
X_Dimension	Time	Time	
X0	0,0000000000000000E+0	0,0000000000000000E+0	
Delta_X	0,001000	0,001000	
***End_of_Header***			
X_Value	powebox	triggerbox	Comment
0,000000	1,958008	1,202850
0,001000	1,705780	4,999847
0,002000	1,908569	4,999847
0,003000	1,772308	4,999847
0,004000	1,863861	4,999847
0,005000	1,831665	4,999847
0,006000	1,823120	4,999847
0,007000	1,885681	4,999847
0,008000	1,787720	4,999847
0,009000	1,937408	4,332886
0,010000	1,757202	2,705688
0,011000	1,986847	4,568024
0,012000	1,731262	4,611206
0,013000	2,034302	4,999847
0,014000	1,720428	4,999847
0,015000	2,010040	4,999847
0,016000	1,788940	4,999847
0,017000	1,965485	4,999847
0,018000	1,852722	4,897461
0,019000	1,924286	3,525696
0,020000	1,911926	3,106232
0,021000	1,887207	4,999847
0,022000	1,968384	4,999847
0,023000	1,853638	4,999847
0,024000	2,023010	4,999847
0,025000	1,822662	4,999847
0,026000	2,074890	4,999847
0,027000	1,797180	4,999847
0,028000	2,115326	4,999847
0,029000	1,812744	4,279633
0,030000	2,073669	4,186859
0,031000	1,881561	3,706055
0,032000	2,033234	4,145050
0,033000	1,946411	4,999847
0,034000	1,996002	4,999847
0,035000	2,009277	4,999847
0,036000	1,962280	4,999847
0,037000	2,068634	4,999847
0,038000	1,932068	4,999847
0,039000	2,124939	2,831116
0,040000	1,904449	3,655243
0,041000	2,178955	4,305878
0,042000	1,879578	4,999847
0,043000	2,192688	4,999847
0,044000	1,924896	4,999847
0,045000	2,150879	4,999847
0,046000	1,993866	4,999847
0,047000	2,111969	4,999847
0,048000	2,059174	4,999847
0,049000	2,075806	4,323425
0,050000	2,120819	4,508667
0,051000	2,042694	3,552704
0,052000	2,178040	4,339294
0,053000	2,011719	4,999847
0,054000	2,232361	4,999847
0,055000	1,983032	4,999847
0,056000	2,278595	4,999847
0,057000	1,963654	4,999847
0,058000	2,253113	4,999847
0,059000	2,028046	3,345032
0,060000	2,206116	3,983612
0,061000	2,093811	3,519592
0,062000	2,164154	4,999847
0,063000	2,155762	4,999847
0,064000	2,125854	4,999847
0,065000	2,213135	4,999847
0,066000	2,090454	4,999847
0,067000	2,264862	4,999847
0,068000	2,058868	4,999847
0,069000	1,841278	3,748169
0,070000	1,732635	3,797302
0,071000	1,691437	4,999847
0,072000	1,675568	4,295654
0,073000	1,669006	4,999847
0,074000	1,666565	4,999847
0,075000	1,665344	4,999847
0,076000	1,665039	4,999847
0,077000	1,664581	4,999847
0,078000	1,664886	4,655457
0,079000	1,664581	3,383942
0,080000	1,664276	4,017944
0,081000	1,664124	4,999847
0,082000	1,663666	4,311371
0,083000	1,663666	4,999847
0,084000	1,663666	4,999847
0,085000	1,663666	4,999847
0,086000	1,663361	4,999847
0,087000	1,663971	4,999847
0,088000	1,663818	4,999847
0,089000	1,663208	4,268341
0,090000	1,649628	4,388123
0,091000	1,265717	3,989563
0,092000	1,075745	3,908997
0,093000	1,051331	4,999847
0,094000	0,997009	4,999847
0,095000	1,016083	4,999847
0,096000	0,994873	4,999847
0,097000	1,006622	4,999847
0,098000	1,001740	4,944611
0,099000	1,001434	3,139343
0,100000	1,011353	4,088898
0,101000	0,997772	4,010315
0,102000	1,019745	4,688416
0,103000	0,994263	4,999847
0,104000	1,028595	4,999847
0,105000	0,990295	4,999847
0,106000	1,037140	4,999847
0,107000	0,987244	4,999847
0,108000	1,038208	4,999847
0,109000	0,998535	4,150696
0,110000	1,030884	2,870178
0,111000	1,011963	3,987122
0,112000	1,024170	3,568878
0,113000	1,024323	4,999847
0,114000	1,018219	4,999847
0,115000	1,036072	4,999847
0,116000	1,012268	4,999847
0,117000	1,047821	4,999847
0,118000	1,006927	4,712982
0,119000	1,058197	3,486938
0,120000	1,001740	2,824707
0,121000	1,068726	4,999847
0,122000	1,002960	4,664612
0,123000	1,062927	4,999847
0,124000	1,018982	4,999847
0,125000	1,052399	4,999847
0,126000	1,035004	4,999847
0,127000	1,042938	4,999847
0,128000	1,050262	4,999847
0,129000	1,034698	4,305573
0,130000	1,064606	4,335327
0,131000	1,027222	3,821106
0,132000	1,078339	3,862457
0,133000	1,020203	4,999847
0,134000	1,091614	4,999847
0,135000	1,013794	4,999847
0,136000	1,100616	4,999847
0,137000	1,022644	4,999847
0,138000	1,087952	4,534149
0,139000	1,043396	3,537140
0,140000	1,074829	4,241333
0,141000	1,062622	3,795776
0,142000	1,063385	4,999847
0,143000	1,080780	4,999847
0,144000	1,053009	4,999847
0,145000	1,098022	4,999847
0,146000	1,043549	4,999847
0,147000	1,113129	4,999847
0,148000	1,034088	4,761810
0,149000	1,128082	4,107971
0,150000	1,025696	3,690948
0,151000	1,128845	3,930359
0,152000	1,046143	4,313965
0,153000	1,111450	4,999847
0,154000	1,069946	4,999847
0,155000	1,095734	4,999847
0,156000	1,092072	4,999847
0,157000	1,081543	4,999847
0,158000	1,112976	4,728394
0,159000	1,069031	4,324036
0,160000	1,132050	3,874359
0,161000	1,057587	4,172668
0,162000	1,149902	4,999847
0,163000	1,046906	4,999847
0,164000	1,166229	4,999847
0,165000	1,044464	4,999847
0,166000	1,154633	4,999847
0,167000	1,072540	4,999847
0,168000	1,134491	4,443817
0,169000	1,099701	4,999847
0,170000	1,115570	3,529205
0,171000	1,124115	4,274902
0,172000	1,099091	3,873444
0,173000	1,147308	4,999847
0,174000	1,084137	4,999847
0,175000	1,168213	4,999847
0,176000	1,070709	4,999847
0,177000	1,188049	4,999847
0,178000	1,059113	4,386139
0,179000	1,202545	4,191437
0,180000	1,069641	4,195557
0,181000	1,179199	4,387970
0,182000	1,102753	4,871521
0,183000	1,155548	4,999847
0,184000	1,131592	4,999847
0,185000	1,134949	4,999847
0,186000	1,159210	4,999847
0,187000	1,116638	4,999847
0,188000	1,184540	4,999847
0,189000	1,099854	4,143524
0,190000	1,207123	3,383331
0,191000	1,084595	4,885712
0,192000	1,228485	4,763184
0,193000	1,071167	4,999847
0,194000	1,230927	4,999847
0,195000	1,097870	4,999847
0,196000	1,201477	4,999847
0,197000	1,133728	4,999847
0,198000	1,175690	4,999847
0,199000	1,166077	3,888092
0,200000	1,152496	3,744965
0,201000	1,195374	3,594360
0,202000	1,132050	4,999847
0,203000	1,222534	4,999847
0,204000	1,113739	4,999847
0,205000	1,247406	4,999847
0,206000	1,097412	4,999847
0,207000	1,269684	4,999847
0,208000	1,090240	4,999847
0,209000	1,254730	4,865723
0,210000	1,130219	3,526764
0,211000	1,223145	4,107819
0,212000	1,166992	3,357544
0,213000	1,324463	4,999847
0,214000	1,382446	4,999847
0,215000	1,406097	4,999847
0,216000	1,282654	4,999847
0,217000	1,237183	4,999847
0,218000	1,182098	4,999847
0,219000	1,239777	3,642120
0,220000	1,148987	3,230286
0,221000	1,264343	4,066772
0,222000	1,128082	4,999847
0,223000	1,289978	4,999847
0,224000	1,110229	4,999847
0,225000	1,310120	4,999847
0,226000	1,122284	4,999847
0,227000	1,276245	4,999847
0,228000	1,166382	4,999847
0,229000	1,242523	4,388885
0,230000	1,206818	2,925720
0,231000	1,213226	4,121399
0,232000	1,243134	3,987732
0,233000	1,186523	4,999847
0,234000	1,276093	4,999847
0,235000	1,163330	4,999847
0,236000	1,306000	4,999847
0,237000	1,142120	4,999847
0,238000	1,333771	4,848785
0,239000	1,123810	3,739014
0,240000	1,337585	4,077301
0,241000	1,157227	4,747772
0,242000	1,297455	4,999847
0,243000	1,203766	4,999847
0,244000	1,261902	4,999847
0,245000	1,246338	4,999847
0,246000	1,230469	4,999847
0,247000	1,284180	4,999847
0,248000	1,202850	4,999847
0,249000	1,318665	3,827820
0,250000	1,178284	3,339996
0,251000	1,349792	4,807587
0,252000	1,156464	4,400330
0,253000	1,378784	4,999847
0,254000	1,145020	4,999847
0,255000	1,359863	4,999847
0,256000	1,195374	4,999847
0,257000	1,317596	4,999847
0,258000	1,244507	4,901276
0,259000	1,280670	3,803864
0,260000	1,287689	3,898010
0,261000	1,248016	3,535614
0,262000	1,327209	4,999847
0,263000	1,219330	4,999847
0,264000	1,362457	4,999847
0,265000	1,193695	4,999847
0,266000	1,395111	4,999847
0,267000	1,171570	4,999847
0,268000	1,422272	4,999847
0,269000	1,181946	3,879395
0,270000	1,380920	3,406830
0,271000	1,237183	3,758850
0,272000	1,337585	4,364471
0,273000	1,286926	4,999847
0,274000	1,299591	4,999847
0,275000	1,332245	4,999847
0,276000	1,266327	4,999847
0,277000	1,372375	4,999847
0,278000	1,237183	4,999847
0,279000	1,408691	3,592682
0,280000	1,211700	2,724457
0,281000	1,441803	4,661255
0,282000	1,189423	4,376373
0,283000	1,450348	4,999847
0,284000	1,225739	4,999847
0,285000	1,401520	4,999847
0,286000	1,282654	4,999847
0,287000	1,357880	4,999847
0,288000	1,333771	4,999847
0,289000	1,320190	4,022217
0,290000	1,379547	3,359222
0,291000	1,286469	4,999847
0,292000	1,420746	4,409637
0,293000	1,257782	4,999847
0,294000	1,457825	4,999847
0,295000	1,231995	4,999847
0,296000	1,491699	4,999847
0,297000	1,215668	4,999847
0,298000	1,471710	4,917450
0,299000	1,273956	4,006348
0,300000	1,424103	3,555603
0,301000	1,332245	4,427032
0,302000	1,380920	4,542084
0,303000	1,383209	4,999847
0,304000	1,342621	4,999847
0,305000	1,429749	4,999847
0,306000	1,309814	4,999847
0,307000	1,471405	4,999847
0,308000	1,281128	4,999847
0,309000	1,509094	4,657745
0,310000	1,256561	4,147034
0,311000	1,542511	4,006500
0,312000	1,263428	3,253479
0,313000	1,497803	4,999847
0,314000	1,327972	4,999847
0,315000	1,448517	4,999847
0,316000	1,385345	4,999847
0,317000	1,406097	4,999847
0,318000	1,437683	4,845276
0,319000	1,368866	3,322296
0,320000	1,483765	4,887238
0,321000	1,336975	3,444061
0,322000	1,525269	4,984131
0,323000	1,308746	4,999847
0,324000	1,562805	4,999847
0,325000	1,285248	4,999847
0,326000	1,576843	4,999847
0,327000	1,320953	4,999847
0,328000	1,523285	4,999847
0,329000	1,385651	4,489746
0,330000	1,475677	3,592987
0,331000	1,442871	4,275055
0,332000	1,434326	3,880157
0,333000	1,494446	4,999847
0,334000	1,398163	4,999847
0,335000	1,540222	4,999847
0,336000	1,367645	4,999847
0,337000	1,581573	4,999847
0,338000	1,340790	4,999847
0,339000	1,618500	3,922119
0,340000	1,320343	3,264618
0,341000	1,604767	4,999847
0,342000	1,383057	4,999847
0,343000	1,551361	4,999847
0,344000	1,446686	4,999847
0,345000	1,505585	4,999847
0,346000	1,503448	4,999847
0,347000	1,465607	4,999847
0,348000	1,553192	4,999847
0,349000	1,431274	3,895264
0,350000	1,599121	3,796692
0,351000	1,402130	4,579010
0,352000	1,639709	3,903961
0,353000	1,376801	4,999847
0,354000	1,676178	4,999847
0,355000	1,379395	4,999847
0,356000	1,633301	4,999847
0,357000	1,448669	4,999847
0,358000	1,582489	4,999847
0,359000	1,510468	3,975677
0,360000	1,538086	4,656219
0,361000	1,565704	2,996368
0,362000	1,500092	4,999847
0,363000	1,614990	4,999847
0,364000	1,467133	4,999847
0,365000	1,659546	4,999847
0,366000	1,438904	4,999847
0,367000	1,698608	4,999847
0,368000	1,415253	4,999847
0,369000	1,717529	4,404144
0,370000	1,446838	3,700409
0,371000	1,663361	4,261169
0,372000	1,514893	3,561096
0,373000	1,614380	4,999847
0,374000	1,575165	4,999847
0,375000	1,572113	4,999847
0,376000	1,629181	4,999847
0,377000	1,536407	4,999847
0,378000	1,677094	4,382477
0,379000	1,504974	3,992004
0,380000	1,719971	3,227234
0,381000	1,478119	4,999847
0,382000	1,758881	4,837494
0,383000	1,455536	4,999847
0,384000	1,748810	4,999847
0,385000	1,516266	4,999847
0,386000	1,694946	4,999847
0,387000	1,582184	4,999847
0,388000	1,648254	4,999847
0,389000	1,640930	4,551239
0,390000	1,608276	3,992615
0,391000	1,693115	4,771881
0,392000	1,573639	4,036560
0,393000	1,740265	4,999847
0,394000	1,544342	4,999847
0,395000	1,781921	4,999847
0,396000	1,519165	4,999847
0,397000	1,819153	4,999847
0,398000	1,516113	4,491119
0,399000	1,779633	4,177094
0,400000	1,584167	2,657471
0,401000	1,727448	4,221649
0,402000	1,649475	4,999847
0,403000	1,683350	4,999847
0,404000	1,707001	4,999847
0,405000	1,645355	4,999847
0,406000	1,757202	4,999847
0,407000	1,612549	4,999847
0,408000	1,802521	4,879456
0,409000	1,584778	4,151459
0,410000	1,843414	4,347687
0,411000	1,560516	3,763733
0,412000	1,867218	4,246826
0,413000	1,586761	4,842529
0,414000	1,814270	4,999847
0,415000	1,656189	4,999847
0,416000	1,765289	4,999847
0,417000	1,717834	4,999847
0,418000	1,723328	4,914093
0,419000	1,773376	3,636322
0,420000	1,687164	4,134369
0,421000	1,821899	3,495789
0,422000	1,655731	4,999847
0,423000	1,866760	4,999847
0,424000	1,629944	4,999847
0,425000	1,909485	4,999847
0,426000	1,606293	4,999847
0,427000	1,908569	4,999847
0,428000	1,662140	4,553223
0,429000	1,857452	4,053650
0,430000	1,729431	2,855530
0,431000	1,811066	4,999847
0,432000	1,788940	3,695679
0,433000	1,771088	4,999847
0,434000	1,842194	4,999847
0,435000	1,736450	4,999847
0,436000	1,890869	4,999847
0,437000	1,706085	4,999847
0,438000	1,937866	4,766693
0,439000	1,680603	4,172516
0,440000	1,983185	4,390411
0,441000	1,671143	3,555145
0,442000	1,955566	4,999847
0,443000	1,740723	4,999847
0,444000	1,908417	4,999847
0,445000	1,805115	4,999847
0,446000	1,865387	4,999847
0,447000	1,862335	4,999847
0,448000	1,826019	4,999847
0,449000	1,916199	4,214172
0,450000	1,792450	3,634033
0,451000	1,967773	4,948425
0,452000	1,763153	4,431458
0,453000	2,017517	4,999847
0,454000	1,738281	4,999847
0,455000	2,054749	4,999847
0,456000	1,756134	4,999847
0,457000	2,010956	4,999847
0,458000	1,824188	4,415588
0,459000	1,967926	4,102020
0,460000	1,886749	4,362640
0,461000	1,928711	3,927307
0,462000	1,946411	4,999847
0,463000	1,893463	4,999847
0,464000	2,002869	4,999847
0,465000	1,861420	4,999847
0,466000	2,057037	4,999847
0,467000	1,832275	4,999847
0,468000	2,108765	4,999847
0,469000	1,807556	4,180298
0,470000	2,121582	3,992004
0,471000	1,853333	3,786316
0,472000	2,079163	3,606720
0,473000	1,921692	4,999847
0,474000	2,039642	4,999847
0,475000	1,986389	4,999847
0,476000	2,004242	4,999847
0,477000	2,048645	4,999847
0,478000	1,972198	4,718323
0,479000	2,107391	4,558411
0,480000	1,943207	2,897034
0,481000	2,163696	3,977966
0,482000	1,916962	4,999847
0,483000	2,215729	4,999847
0,484000	1,899872	4,999847
0,485000	2,198181	4,999847
0,486000	1,967010	4,999847
0,487000	2,155914	4,999847
0,488000	2,035065	4,999847
0,489000	2,117310	4,999847
0,490000	2,098541	4,107666
0,491000	2,081146	4,093018
0,492000	2,158661	3,807526
0,493000	2,047882	4,999847
0,494000	2,213898	4,999847
0,495000	2,017670	4,999847
0,496000	2,263947	4,999847
0,497000	1,988831	4,999847
0,498000	2,296906	4,999847
0,499000	1,995850	3,685760
0,500000	2,246246	2,931976
0,501000	2,063293	4,940796
0,502000	2,199554	4,999847
0,503000	2,125549	4,999847
0,504000	2,158966	4,999847
0,505000	2,187347	4,999847
0,506000	2,122498	4,999847
0,507000	1,879272	4,999847
0,508000	1,747894	4,999847
0,509000	1,697083	4,373627
0,510000	1,677551	2,892456
0,511000	1,669617	4,999847
0,512000	1,667023	4,508972
0,513000	1,665955	4,999847
0,514000	1,664886	4,999847
0,515000	1,664429	4,999847
0,516000	1,664276	4,999847
0,517000	1,664429	4,999847
0,518000	1,664276	4,527283
0,519000	1,663971	4,443665
0,520000	1,663818	4,235229
0,521000	1,663513	3,536835
0,522000	1,663818	4,999847
0,523000	1,663818	4,999847
0,524000	1,663666	4,999847
0,525000	1,663666	4,999847
0,526000	1,663513	4,999847
0,527000	1,663513	4,999847
0,528000	1,351166	4,999847
0,529000	1,120911	4,928436
0,530000	1,057739	3,223877
0,531000	1,004333	4,884644
0,532000	1,021271	3,599701
0,533000	0,984955	4,999847
0,534000	1,022491	4,999847
0,535000	0,981445	4,999847
0,536000	1,020203	4,999847
0,537000	0,991669	4,999847
0,538000	1,014709	4,908905
0,539000	1,002197	3,941193
0,540000	1,009216	3,269196
0,541000	1,012268	3,724823
0,542000	1,004791	4,999847
0,543000	1,022339	4,999847
0,544000	1,000366	4,999847
0,545000	1,032715	4,999847
0,546000	0,996399	4,999847
0,547000	1,041718	4,999847
0,548000	0,992889	4,999847
0,549000	1,050415	4,658813
0,550000	0,996552	3,416290
0,551000	1,043549	4,641724
0,552000	1,010895	4,344788
0,553000	1,035461	4,724121
0,554000	1,024475	4,999847
0,555000	1,027679	4,999847
0,556000	1,037445	4,999847
0,557000	1,020660	4,999847
0,558000	1,049805	4,999847
0,559000	1,014862	3,625946
0,560000	1,061859	2,640228
0,561000	1,009216	4,487152
0,562000	1,073303	4,999847
0,563000	1,004028	4,999847
0,564000	1,077881	4,999847
0,565000	1,015930	4,999847
0,566000	1,066132	4,999847
0,567000	1,033173	4,999847
0,568000	1,055145	4,999847
0,569000	1,050110	4,334564
0,570000	1,045380	3,522186
0,571000	1,065674	4,472198
0,572000	1,036682	4,291229
0,573000	1,081085	4,999847
0,574000	1,028900	4,999847
0,575000	1,095428	4,999847
0,576000	1,022644	4,999847
0,577000	1,109161	4,999847
0,578000	1,017914	4,999847
0,579000	1,105194	3,600769
0,580000	1,038818	4,703979
0,581000	1,090546	4,239807
0,582000	1,060638	4,999847
0,583000	1,077271	4,999847
0,584000	1,080170	4,999847
0,585000	1,065521	4,999847
0,586000	1,098633	4,999847
0,587000	1,053925	4,999847
0,588000	1,115417	4,999847
0,589000	1,044159	4,793243
0,590000	1,131134	4,177856
0,591000	1,035461	4,891357
0,592000	1,146393	4,134064
0,593000	1,039124	4,999847
0,594000	1,130371	4,999847
0,595000	1,065521	4,999847
0,596000	1,112213	4,999847
0,597000	1,089478	4,999847
0,598000	1,096649	4,999847
0,599000	1,111603	3,229065
0,600000	1,082306	4,257965
0,601000	1,131897	4,999847
0,602000	1,069489	4,935455
0,603000	1,151276	4,999847
0,604000	1,057892	4,999847
0,605000	1,167297	4,999847
0,606000	1,046448	4,999847
0,607000	1,176605	4,999847
0,608000	1,064301	4,999847
0,609000	1,154022	4,082642
0,610000	1,093445	3,749847
0,611000	1,132965	4,999847
0,612000	1,119690	4,099121
0,613000	1,114655	4,999847
0,614000	1,143951	4,999847
0,615000	1,098175	4,999847
0,616000	1,167603	4,999847
0,617000	1,083374	4,999847
0,618000	1,188812	4,999847
0,619000	1,070709	3,547363
0,620000	1,208038	3,368530
0,621000	1,060791	4,163513
0,622000	1,202545	4,999847
0,623000	1,092987	4,999847
0,624000	1,177216	4,999847
0,625000	1,124725	4,999847
0,626000	1,153870	4,999847
0,627000	1,154327	4,999847
0,628000	1,132812	4,999847
0,629000	1,181183	4,867706
0,630000	1,114349	3,783264
0,631000	1,206207	4,292145
0,632000	1,098022	4,425201
0,633000	1,229095	4,999847
0,634000	1,083374	4,999847
0,635000	1,249390	4,999847
0,636000	1,085358	4,999847
0,637000	1,226044	4,999847
0,638000	1,123047	4,999847
0,639000	1,197662	3,167267
0,640000	1,158600	4,491730
0,641000	1,172333	3,598785
0,642000	1,190643	4,999847
0,643000	1,149750	4,999847
0,644000	1,219177	4,999847
0,645000	1,129761	4,999847
0,646000	1,245728	4,999847
0,647000	1,111450	4,999847
0,648000	1,270142	4,999847
0,649000	1,095734	4,436035
0,650000	1,289368	3,744202
0,651000	1,369171	4,244690
0,652000	1,401978	4,059753
0,653000	1,197815	4,999847
0,654000	1,286011	4,999847
0,655000	1,125793	4,999847
0,656000	1,290741	4,999847
0,657000	1,101685	4,999847
0,658000	1,291351	4,907227
0,659000	1,130676	3,019562
0,660000	1,255951	4,475861
0,661000	1,172638	3,110352
0,662000	1,224365	4,999847
0,663000	1,210022	4,999847
0,664000	1,195984	4,999847
0,665000	1,244354	4,999847
0,666000	1,171112	4,999847
0,667000	1,275482	4,999847
0,668000	1,149139	4,999847
0,669000	1,304626	4,649506
0,670000	1,129913	3,420258
0,671000	1,330719	4,500885
0,672000	1,118774	4,268799
0,673000	1,314087	4,999847
0,674000	1,165314	4,999847
0,675000	1,276550	4,999847
0,676000	1,209564	4,999847
0,677000	1,242981	4,999847
0,678000	1,249237	4,901733
0,679000	1,213226	4,137421
0,680000	1,285553	3,496857
0,681000	1,187286	3,084106
0,682000	1,318665	4,999847
0,683000	1,164246	4,999847
0,684000	1,348572	4,999847
0,685000	1,143951	4,999847
0,686000	1,373444	4,999847
0,687000	1,153107	4,999847
0,688000	1,335602	4,775391
0,689000	1,203461	4,523010
0,690000	1,296387	3,777313
0,691000	1,250305	4,239655
0,692000	1,261597	3,641815
0,693000	1,291656	4,999847
0,694000	1,230774	4,999847
0,695000	1,328888	4,999847
0,696000	1,204071	4,999847
0,697000	1,362762	4,999847
0,698000	1,180267	4,588928
0,699000	1,393738	3,885651
0,700000	1,158752	4,210052
0,701000	1,401520	3,611450
0,702000	1,192017	4,999847
0,703000	1,356201	4,999847
0,704000	1,245117	4,999847
0,705000	1,315613	4,999847
0,706000	1,292877	4,999847
0,707000	1,279907	4,999847
0,708000	1,335449	4,979095
0,709000	1,248322	4,859314
0,710000	1,373596	3,631897
0,711000	1,221161	4,460449
0,712000	1,408844	4,574280
0,713000	1,196594	4,999847
0,714000	1,440125	4,999847
0,715000	1,180573	4,999847
0,716000	1,423798	4,999847
0,717000	1,236115	4,999847
0,718000	1,377258	4,900208
0,719000	1,290283	4,337463
0,720000	1,336060	4,195862
0,721000	1,338959	4,454498
0,722000	1,300049	4,999847
0,723000	1,382294	4,999847
0,724000	1,268158	4,999847
0,725000	1,421204	4,999847
0,726000	1,240845	4,999847
0,727000	1,457214	4,999847
0,728000	1,216736	4,999847
0,729000	1,488495	4,999847
0,730000	1,223297	3,660736
0,731000	1,445923	3,830872
0,732000	1,283569	4,933014
0,733000	1,399231	4,999847
0,734000	1,338348	4,999847
0,735000	1,358032	4,999847
0,736000	1,387939	4,999847
0,737000	1,322021	4,999847
0,738000	1,431732	4,999847
0,739000	1,290894	4,128418
0,740000	1,471710	3,451691
0,741000	1,263580	3,621674
0,742000	1,507416	4,999847
0,743000	1,239929	4,999847
0,744000	1,520996	4,999847
0,745000	1,273651	4,999847
0,746000	1,469116	4,999847
0,747000	1,335602	4,999847
0,748000	1,422424	4,732513
0,749000	1,390991	4,589233
0,750000	1,381989	3,573914
0,751000	1,439972	4,999847
0,752000	1,346741	4,999847
0,753000	1,484680	4,249878
0,754000	1,316528	4,999847
0,755000	1,524811	4,999847
0,756000	1,289978	4,999847
0,757000	1,560364	4,999847
0,758000	1,269531	4,999847
0,759000	1,547089	3,984528
0,760000	1,330414	3,859100
0,761000	1,494751	4,528046
0,762000	1,391907	4,999847
0,763000	1,449585	4,999847
0,764000	1,447449	4,999847
0,765000	1,410217	4,999847
0,766000	1,496735	4,999847
0,767000	1,375580	4,999847
0,768000	1,540375	4,999847
0,769000	1,346283	4,524841
0,770000	1,580048	3,104858
0,771000	1,320953	4,999847
0,772000	1,615601	4,993134
0,773000	1,323853	4,999847
0,774000	1,573944	4,999847
0,775000	1,390839	4,999847
0,776000	1,522980	4,999847
0,777000	1,452026	4,999847
0,778000	1,479034	4,999847
0,779000	1,506500	3,807831
0,780000	1,441345	3,355865
0,781000	1,554718	2,957916
0,782000	1,408691	4,999847
0,783000	1,598358	4,999847
0,784000	1,379852	4,999847
0,785000	1,637421	4,999847
0,786000	1,355896	4,999847
0,787000	1,656342	4,999847
0,788000	1,387634	4,999847
0,789000	1,602325	4,999847
0,790000	1,454926	3,471527
0,791000	1,553345	4,999847
0,792000	1,514435	4,088287
0,793000	1,511688	4,999847
0,794000	1,568146	4,999847
0,795000	1,475525	4,999847
0,796000	1,615448	4,999847
0,797000	1,444092	4,999847
0,798000	1,658325	4,999847
0,799000	1,417389	3,538818
0,800000	1,696167	3,545074
0,801000	1,394653	3,700256
0,802000	1,686859	4,999847
0,803000	1,454926	4,999847
0,804000	1,633759	4,999847
0,805000	1,520538	4,999847
0,806000	1,586456	4,999847
0,807000	1,578522	4,999847
0,808000	1,545563	4,999847
0,809000	1,629944	4,723663
0,810000	1,509705	3,462067
0,811000	1,676025	4,724121
0,812000	1,481628	4,475708
0,813000	1,718140	4,999847
0,814000	1,456604	4,999847
0,815000	1,755066	4,999847
0,816000	1,454010	4,999847
0,817000	1,717072	4,999847
0,818000	1,523590	4,999847
0,819000	1,665192	3,931427
0,820000	1,586761	3,347473
0,821000	1,620789	4,459686
0,822000	1,643066	4,999847
0,823000	1,582489	4,999847
0,824000	1,693878	4,999847
0,825000	1,549377	4,999847
0,826000	1,738892	4,999847
0,827000	1,521454	4,999847
0,828000	1,778870	4,999847
0,829000	1,497192	4,208221
0,830000	1,802673	4,063721
0,831000	1,523285	4,234009
0,832000	1,748505	4,649506
0,833000	1,592102	4,772339
0,834000	1,699066	4,999847
0,835000	1,654053	4,999847
0,836000	1,656494	4,999847
0,837000	1,708527	4,999847
0,838000	1,619873	4,999847
0,839000	1,757355	4,572754
0,840000	1,588593	3,563843
0,841000	1,800842	4,337006
0,842000	1,561890	4,999847
0,843000	1,840210	4,999847
0,844000	1,538391	4,999847
0,845000	1,835632	4,999847
0,846000	1,594391	4,999847
0,847000	1,781921	4,999847
0,848000	1,661224	4,999847
0,849000	1,735077	4,312744
0,850000	1,720886	3,564148
0,851000	1,694946	4,937592
0,852000	1,773834	4,275055
0,853000	1,660767	4,378815
0,854000	1,820831	4,999847
0,855000	1,630859	4,999847
0,856000	1,863861	4,999847
0,857000	1,606140	4,999847
0,858000	1,905212	4,999847
0,859000	1,598053	3,229675
0,860000	1,874237	3,604584
0,861000	1,667786	4,713440
0,862000	1,823883	4,999847
0,863000	1,732483	4,999847
0,864000	1,779480	4,999847
0,865000	1,790009	4,999847
0,866000	1,740875	4,999847
0,867000	1,841431	4,999847
0,868000	1,707916	4,999847
0,869000	1,888733	3,742371
0,870000	1,679687	3,614197
0,871000	1,934357	4,888458
0,872000	1,655731	4,561768
0,873000	1,968384	4,999847
0,874000	1,674957	4,999847
0,875000	1,920776	4,999847
0,876000	1,744385	4,999847
0,877000	1,874084	4,999847
0,878000	1,806641	4,999847
0,879000	1,831665	3,938446
0,880000	1,861877	3,663940
0,881000	1,794281	3,388519
0,882000	1,913757	4,620972
0,883000	1,762238	4,999847
0,884000	1,963806	4,999847
0,885000	1,734619	4,999847
0,886000	2,011871	4,999847
0,887000	1,710815	4,999847
0,888000	2,021637	4,999847
0,889000	1,758270	4,470825
0,890000	1,974945	3,384857
0,891000	1,824799	4,447174
0,892000	1,932373	4,102631
0,893000	1,885223	4,999847
0,894000	1,893616	4,999847
0,895000	1,942596	4,999847
0,896000	1,858521	4,999847
0,897000	1,997528	4,999847
0,898000	1,826782	4,999847
0,899000	2,049866	3,919067
0,900000	1,799316	3,471985
0,901000	2,100067	3,337555
0,902000	1,783447	4,999847
0,903000	2,082520	4,999847
0,904000	1,850433	4,999847
0,905000	2,039948	4,999847
0,906000	1,916504	4,999847
0,907000	2,001648	4,999847
0,908000	1,979370	4,999847
0,909000	1,966858	3,764801
0,910000	2,039642	3,964539
0,911000	1,935272	4,999847
0,912000	2,094879	4,526215
0,913000	1,904907	4,999847
0,914000	2,151031	4,999847
0,915000	1,880188	4,999847
0,916000	2,197266	4,999847
0,917000	1,890717	4,999847
0,918000	2,158508	4,999847
0,919000	1,961517	4,323425
0,920000	2,118378	3,542938
0,921000	2,028503	4,446106
0,922000	2,081451	4,999847
0,923000	2,091675	4,999847
0,924000	2,047119	4,999847
0,925000	2,151489	4,999847
0,926000	2,015686	4,999847
0,927000	2,206573	4,999847
0,928000	1,987305	4,999847
0,929000	2,256927	4,092255
0,930000	1,960297	3,974304
0,931000	2,266846	4,999847
0,932000	1,998138	4,005432
0,933000	2,218475	4,999847
0,934000	2,065125	4,999847
0,935000	2,175140	4,999847
0,936000	2,127838	4,999847
0,937000	2,135620	4,999847
0,938000	2,187500	4,999847
0,939000	2,099457	4,260101
0,940000	2,242279	3,434296
0,941000	2,066803	4,617157
0,942000	2,288818	4,953766
0,943000	2,036591	4,999847
0,944000	1,827698	4,999847
0,945000	1,727600	4,999847
0,946000	1,689606	4,999847
0,947000	1,674652	4,999847
0,948000	1,669006	4,999847
0,949000	1,666412	4,062195
0,950000	1,665344	4,062347
0,951000	1,664886	4,999847
0,952000	1,664886	3,400879
0,953000	1,664581	4,999847
0,954000	1,664581	4,999847
0,955000	1,664276	4,999847
0,956000	1,664124	4,999847
0,957000	1,663818	4,999847
0,958000	1,663818	4,768372
0,959000	1,663818	4,449310
0,960000	1,663818	3,851166
0,961000	1,663666	3,706818
0,962000	1,663513	4,999847
0,963000	1,663513	4,999847
0,964000	1,663361	4,999847
0,965000	1,550598	4,999847
0,966000	1,225891	4,999847
0,967000	1,067047	4,999847
0,968000	1,036987	4,999847
0,969000	1,005249	4,126434
0,970000	1,006012	3,780060
0,971000	1,003418	4,268036
0,972000	0,997925	4,496307
0,973000	1,010284	4,999847
0,974000	0,993805	4,999847
0,975000	1,018677	4,999847
0,976000	0,990448	4,999847
0,977000	1,026917	4,999847
0,978000	0,987091	4,999847
0,979000	1,035004	4,122162
0,980000	0,988007	3,578949
0,981000	1,031342	3,120880
0,982000	1,000671	4,999847
0,983000	1,025238	4,999847
0,984000	1,012573	4,999847
0,985000	1,018677	4,999847
0,986000	1,024933	4,999847
0,987000	1,013184	4,999847
0,988000	1,035919	4,999847
0,989000	1,007538	4,469604
0,990000	1,046906	3,964539
0,991000	1,003265	4,027863
0,992000	1,056976	4,433441
0,993000	0,998383	4,999847
0,994000	1,064301	4,999847
0,995000	1,004944	4,999847
0,996000	1,054687	4,999847
0,997000	1,021118	4,999847
0,998000	1,045074	4,999847
0,999000	1,036530	3,713379

