LabVIEW Measurement	
Writer_Version	2
Reader_Version	2
Separator	Tab
Decimal_Separator	,
Multi_Headings	Yes
X_Columns	One
Time_Pref	Absolute
Operator	d.nicolai
Date	2023/11/09
Time	16:37:39,5865123999996968043
***End_of_Header***	
	
Channels	2		
Samples	1000	1000	
Date	2023/11/09	2023/11/09	
Time	16:37:48,9045126999995321456	16:37:48,9045126999995321456	
Y_Unit_Label	Volts	Volts	
X_Dimension	Time	Time	
X0	0,0000000000000000E+0	0,0000000000000000E+0	
Delta_X	0,001000	0,001000	
***End_of_Header***			
X_Value	powebox	triggerbox	Comment
0,000000	1,664124	0,934753
0,001000	1,664276	4,999847
0,002000	1,664124	4,999847
0,003000	1,664124	4,999847
0,004000	1,663971	4,999847
0,005000	1,664124	4,999847
0,006000	1,663971	4,999847
0,007000	1,663818	4,999847
0,008000	1,663818	4,999847
0,009000	1,663666	4,693909
0,010000	1,663361	3,988495
0,011000	1,313934	3,440094
0,012000	1,101227	4,802246
0,013000	1,055908	4,999847
0,014000	0,997925	4,999847
0,015000	1,024780	4,999847
0,016000	0,982208	4,999847
0,017000	1,017761	4,999847
0,018000	0,990143	4,999847
0,019000	1,011810	3,550720
0,020000	1,000366	3,757172
0,021000	1,007233	3,803558
0,022000	1,009521	4,999847
0,023000	1,003113	4,999847
0,024000	1,019592	4,999847
0,025000	0,998077	4,999847
0,026000	1,028748	4,999847
0,027000	0,994263	4,999847
0,028000	1,038208	4,999847
0,029000	0,990906	4,469757
0,030000	1,046906	3,219910
0,031000	0,994720	4,599915
0,032000	1,039734	3,942566
0,033000	1,009064	4,999847
0,034000	1,031799	4,999847
0,035000	1,022186	4,999847
0,036000	1,024933	4,999847
0,037000	1,034546	4,999847
0,038000	1,018677	4,999847
0,039000	1,046753	3,522034
0,040000	1,012878	3,930511
0,041000	1,058197	4,634705
0,042000	1,006622	4,999847
0,043000	1,069336	4,999847
0,044000	1,001740	4,999847
0,045000	1,073456	4,999847
0,046000	1,013489	4,999847
0,047000	1,062469	4,999847
0,048000	1,030731	4,999847
0,049000	1,052399	4,331970
0,050000	1,047058	4,230957
0,051000	1,042938	4,589081
0,052000	1,062622	4,797516
0,053000	1,034393	4,999847
0,054000	1,077271	4,999847
0,055000	1,026764	4,999847
0,056000	1,091156	4,999847
0,057000	1,019897	4,999847
0,058000	1,104584	4,764099
0,059000	1,016235	3,434753
0,060000	1,100922	3,596191
0,061000	1,036682	4,999847
0,062000	1,086731	4,999847
0,063000	1,057434	4,999847
0,064000	1,073608	4,999847
0,065000	1,076660	4,999847
0,066000	1,061707	4,999847
0,067000	1,094666	4,999847
0,068000	1,051025	4,999847
0,069000	1,111450	3,495636
0,070000	1,041412	3,383026
0,071000	1,127319	3,825378
0,072000	1,032562	4,238892
0,073000	1,141357	4,999847
0,074000	1,037140	4,999847
0,075000	1,126099	4,999847
0,076000	1,062317	4,999847
0,077000	1,108551	4,999847
0,078000	1,085968	4,999847
0,079000	1,092987	3,096313
0,080000	1,107941	4,511414
0,081000	1,078949	3,342896
0,082000	1,128387	4,999847
0,083000	1,066284	4,999847
0,084000	1,147156	4,999847
0,085000	1,054993	4,999847
0,086000	1,164856	4,999847
0,087000	1,044769	4,999847
0,088000	1,171722	4,999847
0,089000	1,061859	3,714752
0,090000	1,150208	3,886871
0,091000	1,091003	4,299469
0,092000	1,129608	4,228821
0,093000	1,117249	4,999847
0,094000	1,111603	4,999847
0,095000	1,141510	4,999847
0,096000	1,095276	4,999847
0,097000	1,163635	4,999847
0,098000	1,081085	4,999847
0,099000	1,184692	2,975922
0,100000	1,068420	2,742004
0,101000	1,203918	4,999847
0,102000	1,058960	4,999847
0,103000	1,197968	4,999847
0,104000	1,090240	4,999847
0,105000	1,172638	4,999847
0,106000	1,121979	4,999847
0,107000	1,150055	4,999847
0,108000	1,151276	4,816437
0,109000	1,129913	3,522644
0,110000	1,177979	3,562622
0,111000	1,111603	4,355621
0,112000	1,201935	3,672333
0,113000	1,095581	4,999847
0,114000	1,225128	4,999847
0,115000	1,080933	4,999847
0,116000	1,245575	4,999847
0,117000	1,083527	4,999847
0,118000	1,222229	4,736023
0,119000	1,120758	3,404694
0,120000	1,193695	3,668060
0,121000	1,155396	4,090424
0,122000	1,168671	4,634552
0,123000	1,186981	4,999847
0,124000	1,146088	4,999847
0,125000	1,213531	4,999847
0,126000	1,125183	4,999847
0,127000	1,241302	4,999847
0,128000	1,108551	4,999847
0,129000	1,265869	3,783875
0,130000	1,092834	3,304443
0,131000	1,276398	4,425812
0,132000	1,113129	3,594666
0,133000	1,304321	4,999847
0,134000	1,375122	4,999847
0,135000	1,401520	4,999847
0,136000	1,415558	4,999847
0,137000	1,149292	4,999847
0,138000	1,282196	4,451752
0,139000	1,148987	2,954559
0,140000	1,234283	3,364105
0,141000	1,182404	4,624481
0,142000	1,202850	4,522095
0,143000	1,217041	4,999847
0,144000	1,176758	4,999847
0,145000	1,248627	4,999847
0,146000	1,154022	4,999847
0,147000	1,278229	4,999847
0,148000	1,133881	4,999847
0,149000	1,305084	4,028015
0,150000	1,115570	3,592072
0,151000	1,322479	4,875031
0,152000	1,132660	3,611298
0,153000	1,286011	4,999847
0,154000	1,178589	4,999847
0,155000	1,251068	4,999847
0,156000	1,219177	4,999847
0,157000	1,220551	4,999847
0,158000	1,256561	4,545593
0,159000	1,193390	3,472137
0,160000	1,290131	3,584900
0,161000	1,168823	4,612122
0,162000	1,321259	4,999847
0,163000	1,147766	4,999847
0,164000	1,348877	4,999847
0,165000	1,129303	4,999847
0,166000	1,347961	4,999847
0,167000	1,168671	4,999847
0,168000	1,306915	4,713287
0,169000	1,217041	4,410400
0,170000	1,270599	3,549652
0,171000	1,259460	3,818817
0,172000	1,238098	3,869171
0,173000	1,298523	4,999847
0,174000	1,210175	4,999847
0,175000	1,333771	4,999847
0,176000	1,184845	4,999847
0,177000	1,365204	4,999847
0,178000	1,163025	4,548492
0,179000	1,394196	4,165649
0,180000	1,155701	3,578491
0,181000	1,369934	4,929047
0,182000	1,208344	4,860687
0,183000	1,326447	4,999847
0,184000	1,258087	4,999847
0,185000	1,289368	4,999847
0,186000	1,302185	4,999847
0,187000	1,256409	4,999847
0,188000	1,342468	4,542084
0,189000	1,227112	4,601135
0,190000	1,378174	4,999847
0,191000	1,201477	3,813629
0,192000	1,411591	4,975433
0,193000	1,179504	4,999847
0,194000	1,435394	4,999847
0,195000	1,195526	4,999847
0,196000	1,390686	4,999847
0,197000	1,251526	4,999847
0,198000	1,346893	4,353180
0,199000	1,302032	4,449463
0,200000	1,308746	3,894958
0,201000	1,347504	3,821106
0,202000	1,275482	4,999847
0,203000	1,388702	4,999847
0,204000	1,245880	4,999847
0,205000	1,425323	4,999847
0,206000	1,220093	4,999847
0,207000	1,459351	4,999847
0,208000	1,197968	4,999847
0,209000	1,461945	4,856873
0,210000	1,240997	3,579102
0,211000	1,412048	4,265747
0,212000	1,298523	4,999847
0,213000	1,368103	4,999847
0,214000	1,349945	4,999847
0,215000	1,330109	4,999847
0,216000	1,396179	4,999847
0,217000	1,296082	4,999847
0,218000	1,437836	4,996185
0,219000	1,267548	4,494934
0,220000	1,475525	2,990723
0,221000	1,241760	3,957672
0,222000	1,509247	4,999847
0,223000	1,229706	4,999847
0,224000	1,484833	4,999847
0,225000	1,291656	4,999847
0,226000	1,435242	4,999847
0,227000	1,349487	4,999847
0,228000	1,389771	4,999847
0,229000	1,400757	4,537964
0,230000	1,353455	3,679199
0,231000	1,447906	2,859039
0,232000	1,320648	4,148865
0,233000	1,489716	4,999847
0,234000	1,292267	4,999847
0,235000	1,527405	4,999847
0,236000	1,267853	4,999847
0,237000	1,557922	4,999847
0,238000	1,281433	4,609222
0,239000	1,509705	3,409729
0,240000	1,346283	3,271637
0,241000	1,460419	3,534698
0,242000	1,404724	4,999847
0,243000	1,417847	4,999847
0,244000	1,456451	4,999847
0,245000	1,381073	4,999847
0,246000	1,502991	4,999847
0,247000	1,349335	4,999847
0,248000	1,544800	4,845734
0,249000	1,321411	4,842682
0,250000	1,582336	2,588806
0,251000	1,298065	4,158936
0,252000	1,589661	4,384766
0,253000	1,340637	4,999847
0,254000	1,536255	4,999847
0,255000	1,405792	4,999847
0,256000	1,488647	4,999847
0,257000	1,462708	4,999847
0,258000	1,447296	4,999847
0,259000	1,514282	3,918762
0,260000	1,411743	4,077606
0,261000	1,560211	3,297729
0,262000	1,381226	4,343414
0,263000	1,601257	4,999847
0,264000	1,354980	4,999847
0,265000	1,638641	4,999847
0,266000	1,338959	4,999847
0,267000	1,617889	4,999847
0,268000	1,404114	4,999847
0,269000	1,565094	4,414825
0,270000	1,467896	2,842407
0,271000	1,519012	4,999847
0,272000	1,524353	3,437500
0,273000	1,479797	4,999847
0,274000	1,574860	4,999847
0,275000	1,446075	4,999847
0,276000	1,620178	4,999847
0,277000	1,416931	4,999847
0,278000	1,660309	4,999847
0,279000	1,391907	4,069977
0,280000	1,695251	3,405914
0,281000	1,401520	4,631653
0,282000	1,646576	4,999847
0,283000	1,470184	4,999847
0,284000	1,595917	4,999847
0,285000	1,532135	4,999847
0,286000	1,552582	4,999847
0,287000	1,587524	4,999847
0,288000	1,514893	4,999847
0,289000	1,636505	4,999847
0,290000	1,482544	3,984070
0,291000	1,680450	3,324127
0,292000	1,454926	3,025055
0,293000	1,719971	4,999847
0,294000	1,431427	4,999847
0,295000	1,732178	4,999847
0,296000	1,470337	4,999847
0,297000	1,677551	4,999847
0,298000	1,537628	4,838562
0,299000	1,629181	4,134064
0,300000	1,597748	3,742828
0,301000	1,587524	4,206543
0,302000	1,651001	4,999847
0,303000	1,551361	4,999847
0,304000	1,698761	4,999847
0,305000	1,520691	4,999847
0,306000	1,741791	4,999847
0,307000	1,494446	4,999847
0,308000	1,779785	4,999847
0,309000	1,473694	4,749146
0,310000	1,762848	2,517242
0,311000	1,539001	4,407349
0,312000	1,709747	3,321686
0,313000	1,604767	4,999847
0,314000	1,663513	4,999847
0,315000	1,663513	4,999847
0,316000	1,624146	4,999847
0,317000	1,715240	4,999847
0,318000	1,589966	4,999847
0,319000	1,761322	3,703156
0,320000	1,560516	3,545532
0,321000	1,802979	4,534454
0,322000	1,535645	4,768524
0,323000	1,840057	4,999847
0,324000	1,539001	4,999847
0,325000	1,794281	4,999847
0,326000	1,609497	4,999847
0,327000	1,743469	4,999847
0,328000	1,672821	4,999847
0,329000	1,700134	4,003143
0,330000	1,727600	4,015350
0,331000	1,661072	4,459686
0,332000	1,779480	3,996429
0,333000	1,629791	4,999847
0,334000	1,824646	4,999847
0,335000	1,602478	4,999847
0,336000	1,865692	4,999847
0,337000	1,579132	4,999847
0,338000	1,885071	4,999847
0,339000	1,611938	3,305359
0,340000	1,831970	3,123016
0,341000	1,681061	4,999847
0,342000	1,783600	4,696350
0,343000	1,742554	4,999847
0,344000	1,741943	4,999847
0,345000	1,797333	4,999847
0,346000	1,706696	4,999847
0,347000	1,845551	4,999847
0,348000	1,675873	4,999847
0,349000	1,891022	3,534088
0,350000	1,649780	2,914581
0,351000	1,935120	4,999847
0,352000	1,626282	4,083557
0,353000	1,928406	4,999847
0,354000	1,688995	4,999847
0,355000	1,878510	4,999847
0,356000	1,755066	4,999847
0,357000	1,832581	4,999847
0,358000	1,814117	4,849396
0,359000	1,792297	3,313141
0,360000	1,866913	3,307800
0,361000	1,757812	4,429779
0,362000	1,917114	4,721222
0,363000	1,728210	4,999847
0,364000	1,965179	4,999847
0,365000	1,702728	4,999847
0,366000	2,011108	4,999847
0,367000	1,699677	4,999847
0,368000	1,978149	4,999847
0,369000	1,768951	4,806213
0,370000	1,932220	3,947906
0,371000	1,832581	4,999847
0,372000	1,890564	3,789368
0,373000	1,890717	4,999847
0,374000	1,852570	4,999847
0,375000	1,945648	4,999847
0,376000	1,818695	4,999847
0,377000	1,998138	4,999847
0,378000	1,789093	4,999847
0,379000	2,048798	3,309631
0,380000	1,763611	4,163971
0,381000	2,080231	4,350586
0,382000	1,788025	4,512177
0,383000	2,036896	4,999847
0,384000	1,855927	4,999847
0,385000	1,995697	4,999847
0,386000	1,919556	4,999847
0,387000	1,957550	4,999847
0,388000	1,980286	4,999847
0,389000	1,923523	4,638519
0,390000	2,037811	4,496155
0,391000	1,892700	4,483490
0,392000	2,093201	3,177643
0,393000	1,864319	4,986267
0,394000	2,145538	4,999847
0,395000	1,838074	4,999847
0,396000	2,151794	4,999847
0,397000	1,892090	4,999847
0,398000	2,109985	4,596100
0,399000	1,961823	3,256378
0,400000	2,072144	3,467560
0,401000	2,027435	4,072876
0,402000	2,037201	4,494629
0,403000	2,089233	4,999847
0,404000	2,005310	4,999847
0,405000	2,147827	4,999847
0,406000	1,976013	4,999847
0,407000	2,202759	4,999847
0,408000	1,948853	4,999847
0,409000	2,252197	4,011841
0,410000	1,936951	3,491058
0,411000	2,224426	4,409332
0,412000	2,004700	3,429718
0,413000	2,180481	4,999847
0,414000	2,070770	4,999847
0,415000	2,140656	4,999847
0,416000	2,133484	4,999847
0,417000	2,103271	4,999847
0,418000	2,192078	4,999847
0,419000	2,068787	3,272858
0,420000	2,245178	2,982483
0,421000	2,037506	4,631500
0,422000	2,290344	4,999847
0,423000	2,008514	4,999847
0,424000	2,308655	4,999847
0,425000	2,021942	4,999847
0,426000	2,254181	4,999847
0,427000	1,958313	4,999847
0,428000	1,784515	4,999847
0,429000	1,711273	4,094543
0,430000	1,683044	3,307037
0,431000	1,671906	4,428406
0,432000	1,666565	3,343964
0,433000	1,664276	4,999847
0,434000	1,664124	4,999847
0,435000	1,664276	4,999847
0,436000	1,664276	4,999847
0,437000	1,663513	4,999847
0,438000	1,663666	4,879303
0,439000	1,664124	3,412628
0,440000	1,663818	3,871613
0,441000	1,663666	3,789825
0,442000	1,663971	4,999847
0,443000	1,663513	4,999847
0,444000	1,663818	4,999847
0,445000	1,663208	4,999847
0,446000	1,663208	4,999847
0,447000	1,663513	4,999847
0,448000	1,528320	4,743347
0,449000	1,214294	4,972229
0,450000	1,066132	4,922180
0,451000	1,034088	4,080353
0,452000	1,007690	3,496094
0,453000	1,004028	4,999847
0,454000	1,006012	4,999847
0,455000	0,997162	4,999847
0,456000	1,013031	4,999847
0,457000	0,992584	4,999847
0,458000	1,021118	4,560699
0,459000	0,989685	3,842621
0,460000	1,029358	3,742828
0,461000	0,986786	4,845276
0,462000	1,035156	4,999847
0,463000	0,992279	4,999847
0,464000	1,028442	4,999847
0,465000	1,004791	4,999847
0,466000	1,022644	4,999847
0,467000	1,016693	4,999847
0,468000	1,016541	4,742737
0,469000	1,028748	4,997864
0,470000	1,011658	3,060455
0,471000	1,039429	4,999847
0,472000	1,006165	4,493561
0,473000	1,049652	4,999847
0,474000	1,001740	4,999847
0,475000	1,060181	4,999847
0,476000	0,997467	4,999847
0,477000	1,060791	4,999847
0,478000	1,010742	4,557953
0,479000	1,051331	4,770203
0,480000	1,026764	3,180695
0,481000	1,042175	3,774109
0,482000	1,041107	4,999847
0,483000	1,033630	4,999847
0,484000	1,054993	4,999847
0,485000	1,026459	4,999847
0,486000	1,068420	4,999847
0,487000	1,019897	4,999847
0,488000	1,081390	4,999847
0,489000	1,013794	4,593658
0,490000	1,092987	3,776245
0,491000	1,013489	4,821014
0,492000	1,086426	3,948822
0,493000	1,033173	4,736328
0,494000	1,073608	4,999847
0,495000	1,052094	4,999847
0,496000	1,062469	4,999847
0,497000	1,070404	4,999847
0,498000	1,051941	4,999847
0,499000	1,086426	4,417725
0,500000	1,042480	4,321136
0,501000	1,102295	3,828583
0,502000	1,034241	4,999847
0,503000	1,116943	4,999847
0,504000	1,026459	4,999847
0,505000	1,127472	4,999847
0,506000	1,035309	4,999847
0,507000	1,111450	4,999847
0,508000	1,058502	4,830933
0,509000	1,095428	4,199524
0,510000	1,080780	3,287354
0,511000	1,081390	4,999847
0,512000	1,101074	4,446411
0,513000	1,069336	4,503326
0,514000	1,120300	4,999847
0,515000	1,057587	4,999847
0,516000	1,137695	4,999847
0,517000	1,047211	4,999847
0,518000	1,154022	4,999847
0,519000	1,037903	3,523712
0,520000	1,155243	3,848572
0,521000	1,060028	4,482727
0,522000	1,134796	4,999847
0,523000	1,086426	4,999847
0,524000	1,116333	4,999847
0,525000	1,111450	4,999847
0,526000	1,100006	4,999847
0,527000	1,134491	4,999847
0,528000	1,085358	4,999847
0,529000	1,155701	4,734650
0,530000	1,072083	3,429260
0,531000	1,175079	4,999847
0,532000	1,060333	3,789978
0,533000	1,192932	4,999847
0,534000	1,056213	4,999847
0,535000	1,178741	4,999847
0,536000	1,086731	4,999847
0,537000	1,156921	4,999847
0,538000	1,116943	4,905548
0,539000	1,136169	4,821320
0,540000	1,145020	3,706970
0,541000	1,117859	3,838501
0,542000	1,170197	4,999847
0,543000	1,101532	4,999847
0,544000	1,193085	4,999847
0,545000	1,086273	4,999847
0,546000	1,214294	4,999847
0,547000	1,072998	4,999847
0,548000	1,230927	4,999847
0,549000	1,083069	4,204407
0,550000	1,204681	4,181519
0,551000	1,118622	4,219666
0,552000	1,178436	4,120789
0,553000	1,150970	4,999847
0,554000	1,155243	4,999847
0,555000	1,180573	4,999847
0,556000	1,134949	4,999847
0,557000	1,207428	4,999847
0,558000	1,115723	4,999847
0,559000	1,232452	3,673706
0,560000	1,098938	3,367615
0,561000	1,255188	4,015198
0,562000	1,084290	4,999847
0,563000	1,258392	4,999847
0,564000	1,112366	4,999847
0,565000	1,226349	4,999847
0,566000	1,150818	4,999847
0,567000	1,197968	4,999847
0,568000	1,185760	4,999847
0,569000	1,172485	3,664246
0,570000	1,215210	4,099274
0,571000	1,342010	4,832916
0,572000	1,390686	3,944397
0,573000	1,282806	4,999847
0,574000	1,231079	4,999847
0,575000	1,185303	4,999847
0,576000	1,235962	4,999847
0,577000	1,152344	4,999847
0,578000	1,260834	4,999847
0,579000	1,131134	4,298706
0,580000	1,286926	3,744659
0,581000	1,112976	4,840698
0,582000	1,310577	4,999847
0,583000	1,115875	4,999847
0,584000	1,282196	4,999847
0,585000	1,160126	4,999847
0,586000	1,247559	4,999847
0,587000	1,201172	4,999847
0,588000	1,217041	4,999847
0,589000	1,238251	4,702759
0,590000	1,189880	3,699493
0,591000	1,272125	4,927826
0,592000	1,165924	4,476471
0,593000	1,301880	4,999847
0,594000	1,144714	4,999847
0,595000	1,330261	4,999847
0,596000	1,126404	4,999847
0,597000	1,343384	4,999847
0,598000	1,149902	4,824219
0,599000	1,304169	3,800659
0,600000	1,197357	3,792877
0,601000	1,267548	4,151459
0,602000	1,240387	4,691162
0,603000	1,235199	4,999847
0,604000	1,279297	4,999847
0,605000	1,206512	4,999847
0,606000	1,313934	4,999847
0,607000	1,181793	4,999847
0,608000	1,345978	4,999847
0,609000	1,159973	3,761902
0,610000	1,374969	3,652954
0,611000	1,141663	4,999847
0,612000	1,366882	4,279633
0,613000	1,188202	4,999847
0,614000	1,323853	4,999847
0,615000	1,237793	4,999847
0,616000	1,285858	4,999847
0,617000	1,282043	4,999847
0,618000	1,252594	4,999847
0,619000	1,321869	3,595123
0,620000	1,223907	4,283600
0,621000	1,358032	3,913574
0,622000	1,197662	4,999847
0,623000	1,391296	4,999847
0,624000	1,175079	4,999847
0,625000	1,420898	4,999847
0,626000	1,174316	4,999847
0,627000	1,387939	4,999847
0,628000	1,230164	4,999847
0,629000	1,344452	4,826813
0,630000	1,280518	3,634644
0,631000	1,306000	4,822235
0,632000	1,326599	4,197388
0,633000	1,271515	4,999847
0,634000	1,367187	4,999847
0,635000	1,242065	4,999847
0,636000	1,404266	4,999847
0,637000	1,216736	4,999847
0,638000	1,438446	4,999847
0,639000	1,193695	3,202820
0,640000	1,457520	3,926392
0,641000	1,217957	4,127197
0,642000	1,409607	4,991455
0,643000	1,275482	4,999847
0,644000	1,365509	4,999847
0,645000	1,327515	4,999847
0,646000	1,326447	4,999847
0,647000	1,373749	4,999847
0,648000	1,292267	4,999847
0,649000	1,416016	3,835297
0,650000	1,262665	3,307190
0,651000	1,453247	4,999847
0,652000	1,236572	3,603668
0,653000	1,487427	4,999847
0,654000	1,214447	4,999847
0,655000	1,481934	4,999847
0,656000	1,266327	4,999847
0,657000	1,432037	4,999847
0,658000	1,324921	4,544067
0,659000	1,387787	3,752747
0,660000	1,377563	4,357910
0,661000	1,348877	3,453827
0,662000	1,424408	4,999847
0,663000	1,315155	4,999847
0,664000	1,466522	4,999847
0,665000	1,285858	4,999847
0,666000	1,504822	4,999847
0,667000	1,260834	4,999847
0,668000	1,539001	4,999847
0,669000	1,255646	4,308929
0,670000	1,506195	4,084778
0,671000	1,319275	4,269562
0,672000	1,456299	4,675140
0,673000	1,378479	4,999847
0,674000	1,412811	4,999847
0,675000	1,430969	4,999847
0,676000	1,374969	4,999847
0,677000	1,477966	4,999847
0,678000	1,342163	4,999847
0,679000	1,520386	4,277191
0,680000	1,313477	3,707733
0,681000	1,558533	4,090576
0,682000	1,288910	4,999847
0,683000	1,584167	4,999847
0,684000	1,311951	4,999847
0,685000	1,532135	4,999847
0,686000	1,377411	4,999847
0,687000	1,483459	4,999847
0,688000	1,435852	4,999847
0,689000	1,440582	4,907074
0,690000	1,488190	3,590698
0,691000	1,403961	4,676666
0,692000	1,534882	3,680420
0,693000	1,372528	4,999847
0,694000	1,576538	4,999847
0,695000	1,345215	4,999847
0,696000	1,614380	4,999847
0,697000	1,322021	4,999847
0,698000	1,613617	4,741821
0,699000	1,373901	4,365082
0,700000	1,559448	4,476013
0,701000	1,438446	3,865662
0,702000	1,512451	4,999847
0,703000	1,496277	4,999847
0,704000	1,471863	4,999847
0,705000	1,547852	4,999847
0,706000	1,436615	4,999847
0,707000	1,593323	4,999847
0,708000	1,407166	4,957581
0,709000	1,634827	4,961853
0,710000	1,380463	3,954773
0,711000	1,671753	3,793640
0,712000	1,371307	4,232330
0,713000	1,642303	4,999847
0,714000	1,439362	4,999847
0,715000	1,590118	4,999847
0,716000	1,502228	4,999847
0,717000	1,545105	4,999847
0,718000	1,558685	4,820557
0,719000	1,505737	4,421539
0,720000	1,608887	4,043121
0,721000	1,472473	4,298706
0,722000	1,654053	4,999847
0,723000	1,443939	4,999847
0,724000	1,694183	4,999847
0,725000	1,419373	4,999847
0,726000	1,724243	4,999847
0,727000	1,437378	4,999847
0,728000	1,672211	4,999847
0,729000	1,506195	4,503021
0,730000	1,622162	3,151703
0,731000	1,567993	3,885040
0,732000	1,579285	4,846954
0,733000	1,622772	4,909515
0,734000	1,542206	4,999847
0,735000	1,671448	4,999847
0,736000	1,510162	4,999847
0,737000	1,715088	4,999847
0,738000	1,482849	4,891510
0,739000	1,754456	4,524384
0,740000	1,457977	3,832855
0,741000	1,757507	3,779602
0,742000	1,506653	4,999847
0,743000	1,703644	4,999847
0,744000	1,573486	4,999847
0,745000	1,655731	4,999847
0,746000	1,633453	4,999847
0,747000	1,614685	4,999847
0,748000	1,686554	4,999847
0,749000	1,579132	4,310150
0,750000	1,734314	3,708801
0,751000	1,549072	4,159241
0,752000	1,776428	4,913940
0,753000	1,523132	4,999847
0,754000	1,814423	4,999847
0,755000	1,508636	4,999847
0,756000	1,788483	4,999847
0,757000	1,576385	4,999847
0,758000	1,736145	4,673615
0,759000	1,641388	4,143066
0,760000	1,690369	3,517151
0,761000	1,699066	2,794800
0,762000	1,651306	4,999847
0,763000	1,750793	4,999847
0,764000	1,617737	4,999847
0,765000	1,796722	4,999847
0,766000	1,588898	4,999847
0,767000	1,838379	4,999847
0,768000	1,565094	4,999847
0,769000	1,873016	4,428253
0,770000	1,577148	3,079376
0,771000	1,823273	4,828033
0,772000	1,647644	4,976501
0,773000	1,773529	4,999847
0,774000	1,710663	4,999847
0,775000	1,730499	4,999847
0,776000	1,766663	4,999847
0,777000	1,693573	4,999847
0,778000	1,816559	4,999847
0,779000	1,661682	3,914795
0,780000	1,861572	2,644653
0,781000	1,634216	3,721771
0,782000	1,904449	4,999847
0,783000	1,611023	4,999847
0,784000	1,917419	4,999847
0,785000	1,652374	4,999847
0,786000	1,865845	4,999847
0,787000	1,721497	4,999847
0,788000	1,818695	4,999847
0,789000	1,781769	4,338837
0,790000	1,777954	3,411560
0,791000	1,835632	4,999847
0,792000	1,742401	4,394226
0,793000	1,885071	4,999847
0,794000	1,711578	4,999847
0,795000	1,932068	4,999847
0,796000	1,684723	4,999847
0,797000	1,977539	4,999847
0,798000	1,665497	4,999847
0,799000	1,964417	3,847961
0,800000	1,732178	3,741150
0,801000	1,916656	3,770142
0,802000	1,797638	4,999847
0,803000	1,872864	4,999847
0,804000	1,855469	4,999847
0,805000	1,833801	4,999847
0,806000	1,909790	4,999847
0,807000	1,798706	4,999847
0,808000	1,962433	4,999847
0,809000	1,769104	4,999847
0,810000	2,012024	3,547363
0,811000	1,743469	4,999847
0,812000	2,059021	4,367065
0,813000	1,747437	4,999847
0,814000	2,019501	4,999847
0,815000	1,817017	4,999847
0,816000	1,976013	4,999847
0,817000	1,879578	4,999847
0,818000	1,936646	4,999847
0,819000	1,938782	4,159546
0,820000	1,899872	2,830048
0,821000	1,995697	4,307251
0,822000	1,867371	4,999847
0,823000	2,050781	4,999847
0,824000	1,838531	4,999847
0,825000	2,102966	4,999847
0,826000	1,812744	4,999847
0,827000	2,129211	4,999847
0,828000	1,844482	4,999847
0,829000	2,086792	4,294739
0,830000	1,913300	3,284607
0,831000	2,046661	4,999847
0,832000	1,978607	4,220123
0,833000	2,010651	4,999847
0,834000	2,041168	4,999847
0,835000	1,978912	4,999847
0,836000	2,101440	4,999847
0,837000	1,949310	4,999847
0,838000	2,157593	4,999847
0,839000	1,922455	4,405670
0,840000	2,209930	3,188934
0,841000	1,897125	4,367371
0,842000	2,203369	4,999847
0,843000	1,957092	4,999847
0,844000	2,162476	4,999847
0,845000	2,026520	4,999847
0,846000	2,123871	4,999847
0,847000	2,091217	4,999847
0,848000	2,088165	4,999847
0,849000	2,151947	4,999847
0,850000	2,054596	3,734741
0,851000	2,208405	4,251404
0,852000	2,023468	3,770142
0,853000	2,258911	4,999847
0,854000	1,994781	4,999847
0,855000	2,299500	4,999847
0,856000	1,988525	4,999847
0,857000	2,254486	4,999847
0,858000	2,054901	4,999847
0,859000	2,207184	3,275604
0,860000	2,119141	2,843323
0,861000	2,165833	4,484711
0,862000	2,180176	4,688263
0,863000	2,127686	4,999847
0,864000	1,883392	4,999847
0,865000	1,749573	4,999847
0,866000	1,697693	4,999847
0,867000	1,677551	4,999847
0,868000	1,668854	4,999847
0,869000	1,666107	4,139557
0,870000	1,665039	3,639069
0,871000	1,664581	4,999847
0,872000	1,663818	3,553925
0,873000	1,663513	4,999847
0,874000	1,663666	4,999847
0,875000	1,663971	4,999847
0,876000	1,663666	4,999847
0,877000	1,663361	4,999847
0,878000	1,663513	4,999847
0,879000	1,663055	3,404999
0,880000	1,663666	3,232422
0,881000	1,663361	4,690552
0,882000	1,663208	4,999847
0,883000	1,663361	4,999847
0,884000	1,663208	4,999847
0,885000	1,663055	4,999847
0,886000	1,329803	4,999847
0,887000	1,110687	4,999847
0,888000	1,057281	4,999847
0,889000	1,001740	4,043579
0,890000	1,024017	3,496094
0,891000	0,984039	4,665375
0,892000	1,022491	4,363403
0,893000	0,987854	4,999847
0,894000	1,016693	4,999847
0,895000	0,997467	4,999847
0,896000	1,011047	4,999847
0,897000	1,007996	4,999847
0,898000	1,006165	4,999847
0,899000	1,017609	4,333191
0,900000	1,002808	3,591156
0,901000	1,027679	3,202972
0,902000	0,998535	4,275055
0,903000	1,036682	4,999847
0,904000	0,995178	4,999847
0,905000	1,045837	4,999847
0,906000	0,991974	4,999847
0,907000	1,045990	4,999847
0,908000	1,004486	4,999847
0,909000	1,037903	4,308472
0,910000	1,018524	3,957825
0,911000	1,031036	3,852692
0,912000	1,031494	3,645630
0,913000	1,023712	4,999847
0,914000	1,044006	4,999847
0,915000	1,016693	4,999847
0,916000	1,055298	4,999847
0,917000	1,011505	4,999847
0,918000	1,067047	4,999847
0,919000	1,006470	3,860626
0,920000	1,077423	3,648071
0,921000	1,007996	3,787384
0,922000	1,069336	4,999847
0,923000	1,025238	4,999847
0,924000	1,058960	4,999847
0,925000	1,041565	4,999847
0,926000	1,049042	4,999847
0,927000	1,058044	4,999847
0,928000	1,040039	4,999847
0,929000	1,072998	4,488068
0,930000	1,031952	3,920288
0,931000	1,087341	4,473724
0,932000	1,024475	4,588165
0,933000	1,101074	4,999847
0,934000	1,017914	4,999847
0,935000	1,109009	4,999847
0,936000	1,028900	4,999847
0,937000	1,095276	4,999847
0,938000	1,050262	4,999847
0,939000	1,081696	3,733215
0,940000	1,070404	3,621826
0,941000	1,068420	3,215790
0,942000	1,088867	4,999847
0,943000	1,057892	4,999847
0,944000	1,105347	4,999847
0,945000	1,046600	4,999847
0,946000	1,121826	4,999847
0,947000	1,038208	4,999847
0,948000	1,137695	4,999847
0,949000	1,030579	4,191132
0,950000	1,136932	3,998718
0,951000	1,053314	4,080811
0,952000	1,118622	3,759918
0,953000	1,078033	4,999847
0,954000	1,102142	4,999847
0,955000	1,100311	4,999847
0,956000	1,086884	4,999847
0,957000	1,121826	4,999847
0,958000	1,073914	4,999847
0,959000	1,141205	4,056244
0,960000	1,062012	3,645630
0,961000	1,159210	2,990570
0,962000	1,051178	4,468384
0,963000	1,176147	4,999847
0,964000	1,050568	4,999847
0,965000	1,161957	4,999847
0,966000	1,080170	4,999847
0,967000	1,140747	4,999847
0,968000	1,107788	4,999847
0,969000	1,121521	4,999847
0,970000	1,132965	4,133759
0,971000	1,104584	3,550568
0,972000	1,156464	4,374084
0,973000	1,089172	4,923401
0,974000	1,178131	4,999847
0,975000	1,075287	4,999847
0,976000	1,197968	4,999847
0,977000	1,063843	4,999847
0,978000	1,211090	4,854889
0,979000	1,077118	4,735107
0,980000	1,185760	3,536377
0,981000	1,110077	3,188629
0,982000	1,161957	4,999847
0,983000	1,140747	4,999847
0,984000	1,140442	4,999847
0,985000	1,168213	4,999847
0,986000	1,121368	4,999847
0,987000	1,193542	4,999847
0,988000	1,104126	4,999847
0,989000	1,217194	4,999847
0,990000	1,089783	3,764191
0,991000	1,239014	3,776093
0,992000	1,075745	4,505157
0,993000	1,237946	4,999847
0,994000	1,106262	4,999847
0,995000	1,208191	4,999847
0,996000	1,142731	4,999847
0,997000	1,181488	4,999847
0,998000	1,175385	4,999847
0,999000	1,158295	4,467773

