LabVIEW Measurement	
Writer_Version	2
Reader_Version	2
Separator	Tab
Decimal_Separator	,
Multi_Headings	Yes
X_Columns	One
Time_Pref	Absolute
Operator	d.nicolai
Date	2023/11/09
Time	16:37:39,5865123999996968043
***End_of_Header***	
	
Channels	2		
Samples	1000	1000	
Date	2023/11/09	2023/11/09	
Time	16:37:39,5865123999996968043	16:37:39,5865123999996968043	
Y_Unit_Label	Volts	Volts	
X_Dimension	Time	Time	
X0	0,0000000000000000E+0	0,0000000000000000E+0	
Delta_X	0,001000	0,001000	
***End_of_Header***			
X_Value	powebox	triggerbox	Comment
0,000000	1,736755	0,851440
0,001000	1,510773	1,788025
0,002000	1,777191	0,606079
0,003000	1,486816	0,822754
0,004000	1,788483	0,264740
0,005000	1,525116	2,025604
0,006000	1,733856	3,596649
0,007000	1,591644	3,885040
0,008000	1,684723	3,797150
0,009000	1,653900	1,231232
0,010000	1,643524	0,860901
0,011000	1,707306	0,134583
0,012000	1,608429	0,123749
0,013000	1,755829	0,180054
0,014000	1,576538	0,191803
0,015000	1,798706	1,316986
0,016000	1,551056	2,683258
0,017000	1,837311	2,980499
0,018000	1,530762	4,999847
0,019000	1,820526	4,999847
0,020000	1,596375	4,999847
0,021000	1,767883	3,782806
0,022000	1,659698	4,076080
0,023000	1,720886	4,271088
0,024000	1,720581	3,971100
0,025000	1,682587	4,999847
0,026000	1,772919	4,999847
0,027000	1,648865	4,999847
0,028000	1,820221	4,999847
0,029000	1,619873	4,999847
0,030000	1,861877	4,967041
0,031000	1,595306	3,548431
0,032000	1,902008	4,539795
0,033000	1,598511	4,016571
0,034000	1,859283	4,999847
0,035000	1,669464	4,999847
0,036000	1,808624	4,999847
0,037000	1,732788	4,999847
0,038000	1,762848	4,999847
0,039000	1,788940	4,999847
0,040000	1,726990	4,999847
0,041000	1,839294	3,755035
0,042000	1,695099	3,306274
0,043000	1,886292	4,999847
0,044000	1,667480	3,876495
0,045000	1,931152	4,999847
0,046000	1,644135	4,999847
0,047000	1,954498	4,999847
0,048000	1,675873	4,999847
0,049000	1,904907	4,999847
0,050000	1,744843	4,855194
0,051000	1,858215	3,150330
0,052000	1,805725	3,854370
0,053000	1,816406	4,805756
0,054000	1,860657	4,587097
0,055000	1,779785	4,999847
0,056000	1,912079	4,999847
0,057000	1,748505	4,999847
0,058000	1,961060	4,999847
0,059000	1,721802	4,999847
0,060000	2,008362	4,999847
0,061000	1,697540	4,751892
0,062000	2,005310	4,648895
0,063000	1,758270	3,813782
0,064000	1,958771	4,140625
0,065000	1,824188	4,999847
0,066000	1,916351	4,999847
0,067000	1,883240	4,999847
0,068000	1,877136	4,999847
0,069000	1,939850	4,999847
0,070000	1,842194	4,873047
0,071000	1,993866	4,064636
0,072000	1,811676	4,546204
0,073000	2,045593	3,688354
0,074000	1,784515	4,870300
0,075000	2,095032	4,999847
0,076000	1,779785	4,999847
0,077000	2,065125	4,999847
0,078000	1,847992	4,999847
0,079000	2,022552	4,999847
0,080000	1,912994	4,999847
0,081000	1,984100	3,984375
0,082000	1,975250	3,456573
0,083000	1,948853	4,539490
0,084000	2,034454	4,029846
0,085000	1,917877	4,999847
0,086000	2,091217	4,999847
0,087000	1,889191	4,999847
0,088000	2,145386	4,999847
0,089000	1,863403	4,999847
0,090000	2,180176	4,807892
0,091000	1,886444	3,556519
0,092000	2,139587	3,020020
0,093000	1,956787	4,553528
0,094000	2,100067	4,949646
0,095000	2,023315	4,999847
0,096000	2,064056	4,999847
0,097000	2,086487	4,999847
0,098000	2,030487	4,999847
0,099000	2,145538	4,999847
0,100000	2,000427	4,651947
0,101000	2,201080	4,735565
0,102000	1,971893	4,484558
0,103000	2,251892	4,225311
0,104000	1,944427	4,155121
0,105000	2,250977	4,999847
0,106000	1,996155	4,999847
0,107000	2,204742	4,999847
0,108000	2,063293	4,999847
0,109000	2,162781	4,999847
0,110000	2,126617	4,761353
0,111000	2,123718	3,315125
0,112000	2,185974	4,555969
0,113000	2,088318	3,114319
0,114000	2,240295	4,999847
0,115000	2,055511	4,999847
0,116000	2,286835	4,999847
0,117000	2,025909	4,999847
0,118000	2,318420	4,999847
0,119000	1,998596	4,999847
0,120000	1,806183	4,999847
0,121000	1,719513	4,999847
0,122000	1,686401	4,127808
0,123000	1,673279	3,155975
0,124000	1,666107	4,138336
0,125000	1,664886	4,999847
0,126000	1,665039	4,999847
0,127000	1,664276	4,999847
0,128000	1,664429	4,999847
0,129000	1,664124	4,999847
0,130000	1,663971	4,863739
0,131000	1,663818	3,693542
0,132000	1,663666	4,461975
0,133000	1,663818	3,982544
0,134000	1,663666	4,587555
0,135000	1,663666	4,999847
0,136000	1,663666	4,999847
0,137000	1,663361	4,999847
0,138000	1,663055	4,999847
0,139000	1,663361	4,999847
0,140000	1,663666	4,999847
0,141000	1,443939	4,999847
0,142000	1,170197	3,691864
0,143000	1,062469	3,564911
0,144000	1,019135	4,304352
0,145000	1,014099	4,909363
0,146000	0,994263	4,999847
0,147000	1,013641	4,999847
0,148000	0,987854	4,999847
0,149000	1,020355	4,999847
0,150000	0,985413	4,215088
0,151000	1,028290	3,537292
0,152000	0,984955	3,863678
0,153000	1,026611	4,999847
0,154000	0,996399	4,999847
0,155000	1,020050	4,999847
0,156000	1,006927	4,999847
0,157000	1,014862	4,999847
0,158000	1,018066	4,999847
0,159000	1,010132	4,999847
0,160000	1,029358	4,663391
0,161000	1,004944	4,776611
0,162000	1,039429	4,727631
0,163000	1,000366	3,897705
0,164000	1,049957	4,394531
0,165000	0,995941	4,999847
0,166000	1,058044	4,999847
0,167000	0,999908	4,999847
0,168000	1,049805	4,999847
0,169000	1,015778	4,999847
0,170000	1,040955	4,825745
0,171000	1,029816	4,400940
0,172000	1,032562	2,983704
0,173000	1,043396	3,495636
0,174000	1,025085	4,980164
0,175000	1,056519	4,999847
0,176000	1,017914	4,999847
0,177000	1,068878	4,999847
0,178000	1,012268	4,999847
0,179000	1,080780	4,999847
0,180000	1,006622	4,999847
0,181000	1,084900	4,255829
0,182000	1,019745	3,033142
0,183000	1,072235	4,999847
0,184000	1,038666	4,223785
0,185000	1,061707	4,999847
0,186000	1,056061	4,999847
0,187000	1,051331	4,999847
0,188000	1,073303	4,999847
0,189000	1,041870	4,999847
0,190000	1,088715	4,979095
0,191000	1,033478	4,086914
0,192000	1,103668	3,085480
0,193000	1,025696	4,999847
0,194000	1,117706	4,999847
0,195000	1,021576	4,999847
0,196000	1,112671	4,999847
0,197000	1,044006	4,999847
0,198000	1,097260	4,999847
0,199000	1,066132	4,999847
0,200000	1,082611	4,999847
0,201000	1,086121	4,999847
0,202000	1,069489	2,977142
0,203000	1,105347	4,312897
0,204000	1,058197	4,016571
0,205000	1,123199	4,999847
0,206000	1,047821	4,999847
0,207000	1,139526	4,999847
0,208000	1,038208	4,999847
0,209000	1,154938	4,999847
0,210000	1,043243	4,540405
0,211000	1,137695	3,523560
0,212000	1,070404	4,013519
0,213000	1,118622	3,321991
0,214000	1,094971	4,999847
0,215000	1,101837	4,999847
0,216000	1,117859	4,999847
0,217000	1,086884	4,999847
0,218000	1,139679	4,999847
0,219000	1,073608	4,999847
0,220000	1,159515	4,999847
0,221000	1,061249	4,759064
0,222000	1,177673	3,149872
0,223000	1,050262	4,531708
0,224000	1,184845	4,183502
0,225000	1,069031	4,999847
0,226000	1,161194	4,999847
0,227000	1,099548	4,999847
0,228000	1,139679	4,999847
0,229000	1,127014	4,999847
0,230000	1,120148	4,999847
0,231000	1,152191	4,080658
0,232000	1,103363	2,999420
0,233000	1,175995	4,438171
0,234000	1,087952	4,670868
0,235000	1,197662	4,999847
0,236000	1,074524	4,999847
0,237000	1,218109	4,999847
0,238000	1,064758	4,999847
0,239000	1,210785	4,999847
0,240000	1,097870	4,999847
0,241000	1,183624	4,847565
0,242000	1,131287	3,633881
0,243000	1,159973	3,775024
0,244000	1,161652	3,574524
0,245000	1,138458	4,999847
0,246000	1,189117	4,999847
0,247000	1,119232	4,999847
0,248000	1,214600	4,999847
0,249000	1,102142	4,999847
0,250000	1,238098	4,700317
0,251000	1,087036	3,918762
0,252000	1,259460	3,215332
0,253000	1,090240	4,999847
0,254000	1,234283	4,999847
0,255000	1,129303	4,999847
0,256000	1,204681	4,999847
0,257000	1,165314	4,999847
0,258000	1,178284	4,999847
0,259000	1,197510	4,999847
0,260000	1,155090	4,999847
0,261000	1,227570	4,483490
0,262000	1,134338	4,156189
0,263000	1,251831	4,999847
0,264000	1,355286	4,131012
0,265000	1,395569	4,999847
0,266000	1,295319	4,999847
0,267000	1,226196	4,999847
0,268000	1,192169	4,999847
0,269000	1,230316	4,999847
0,270000	1,158142	4,999847
0,271000	1,255646	3,070984
0,272000	1,135712	4,535828
0,273000	1,282349	3,415833
0,274000	1,117096	4,851685
0,275000	1,306610	4,999847
0,276000	1,106873	4,999847
0,277000	1,291809	4,999847
0,278000	1,150360	4,999847
0,279000	1,256256	4,999847
0,280000	1,192322	4,999847
0,281000	1,224518	4,675293
0,282000	1,230621	3,198395
0,283000	1,196136	4,335480
0,284000	1,265106	3,304291
0,285000	1,172028	4,999847
0,286000	1,296844	4,999847
0,287000	1,149750	4,999847
0,288000	1,325226	4,999847
0,289000	1,130524	4,999847
0,290000	1,349792	4,999847
0,291000	1,139221	4,180145
0,292000	1,313782	2,926941
0,293000	1,187744	4,999847
0,294000	1,276550	4,499512
0,295000	1,231537	4,999847
0,296000	1,242828	4,999847
0,297000	1,271210	4,999847
0,298000	1,214142	4,999847
0,299000	1,307068	4,999847
0,300000	1,188049	4,999847
0,301000	1,339874	3,676453
0,302000	1,165161	4,620209
0,303000	1,370087	3,841400
0,304000	1,145172	2,368774
0,305000	1,377869	4,999847
0,306000	1,176758	4,999847
0,307000	1,334534	4,999847
0,308000	1,227417	4,999847
0,309000	1,295624	4,999847
0,310000	1,273041	4,725647
0,311000	1,261292	3,513489
0,312000	1,314392	4,735718
0,313000	1,230927	3,357849
0,314000	1,351013	4,960022
0,315000	1,204529	4,999847
0,316000	1,384583	4,999847
0,317000	1,181335	4,999847
0,318000	1,415253	4,999847
0,319000	1,165009	4,999847
0,320000	1,400146	4,999847
0,321000	1,217957	4,999847
0,322000	1,354980	3,454437
0,323000	1,270294	4,612427
0,324000	1,314850	4,115601
0,325000	1,317596	4,999847
0,326000	1,279755	4,999847
0,327000	1,359253	4,999847
0,328000	1,249542	4,999847
0,329000	1,396027	4,999847
0,330000	1,221619	4,561920
0,331000	1,431580	3,483276
0,332000	1,198730	4,276428
0,333000	1,462555	3,789520
0,334000	1,204376	4,999847
0,335000	1,421967	4,999847
0,336000	1,263428	4,999847
0,337000	1,375732	4,999847
0,338000	1,316223	4,999847
0,339000	1,335602	4,999847
0,340000	1,363983	4,999847
0,341000	1,300659	4,693909
0,342000	1,407166	4,244843
0,343000	1,269836	4,128571
0,344000	1,445923	3,495636
0,345000	1,242828	4,999847
0,346000	1,480560	4,999847
0,347000	1,219940	4,999847
0,348000	1,494751	4,999847
0,349000	1,252594	4,999847
0,350000	1,444092	4,532013
0,351000	1,312408	4,049835
0,352000	1,398468	3,287506
0,353000	1,366425	3,303070
0,354000	1,358185	4,999847
0,355000	1,414795	4,999847
0,356000	1,323395	4,999847
0,357000	1,458435	4,999847
0,358000	1,293335	4,999847
0,359000	1,497650	4,999847
0,360000	1,266937	4,999847
0,361000	1,532440	4,027863
0,362000	1,246643	4,999847
0,363000	1,519623	3,895874
0,364000	1,305237	3,988190
0,365000	1,468353	4,999847
0,366000	1,366425	4,999847
0,367000	1,423187	4,999847
0,368000	1,420441	4,999847
0,369000	1,383820	4,999847
0,370000	1,468048	4,727173
0,371000	1,350250	4,044952
0,372000	1,512299	4,940643
0,373000	1,320801	3,720245
0,374000	1,551056	4,999847
0,375000	1,295776	4,999847
0,376000	1,586456	4,999847
0,377000	1,297607	4,999847
0,378000	1,545868	4,999847
0,379000	1,364136	4,999847
0,380000	1,495056	4,999847
0,381000	1,424408	4,843903
0,382000	1,451416	2,930603
0,383000	1,477814	3,998260
0,384000	1,413422	4,026642
0,385000	1,525726	4,999847
0,386000	1,380768	4,999847
0,387000	1,568909	4,999847
0,388000	1,352386	4,999847
0,389000	1,606903	4,999847
0,390000	1,328583	4,200592
0,391000	1,626892	4,522400
0,392000	1,358948	4,094391
0,393000	1,573029	3,014679
0,394000	1,425476	4,987335
0,395000	1,523437	4,999847
0,396000	1,484833	4,999847
0,397000	1,481934	4,999847
0,398000	1,537323	4,999847
0,399000	1,445770	4,999847
0,400000	1,585083	4,869995
0,401000	1,414795	4,017639
0,402000	1,626892	2,632599
0,403000	1,387787	4,338074
0,404000	1,664886	4,437256
0,405000	1,365509	4,999847
0,406000	1,657104	4,999847
0,407000	1,424713	4,999847
0,408000	1,602631	4,999847
0,409000	1,489868	4,999847
0,410000	1,556244	4,425201
0,411000	1,548157	3,804932
0,412000	1,516113	4,959259
0,413000	1,599274	3,279419
0,414000	1,481476	4,999847
0,415000	1,645508	4,999847
0,416000	1,451874	4,999847
0,417000	1,686859	4,999847
0,418000	1,426392	4,999847
0,419000	1,723785	4,999847
0,420000	1,423035	4,999847
0,421000	1,686707	4,920349
0,422000	1,492462	3,315277
0,423000	1,634674	4,209747
0,424000	1,555634	4,627991
0,425000	1,590118	4,999847
0,426000	1,611938	4,999847
0,427000	1,551819	4,999847
0,428000	1,662292	4,999847
0,429000	1,518555	4,999847
0,430000	1,706848	4,497986
0,431000	1,490479	3,774719
0,432000	1,746368	2,535858
0,433000	1,465759	3,507996
0,434000	1,771088	4,999847
0,435000	1,492004	4,999847
0,436000	1,717224	4,999847
0,437000	1,560516	4,999847
0,438000	1,667786	4,999847
0,439000	1,622009	4,999847
0,440000	1,625214	4,999847
0,441000	1,676331	4,888153
0,442000	1,588898	3,681641
0,443000	1,725464	3,880310
0,444000	1,557465	4,053345
0,445000	1,768951	4,765778
0,446000	1,530609	4,999847
0,447000	1,807404	4,999847
0,448000	1,506653	4,999847
0,449000	1,803436	4,999847
0,450000	1,562042	4,999847
0,451000	1,749420	4,336700
0,452000	1,629181	4,012604
0,453000	1,702271	3,714447
0,454000	1,688080	4,999847
0,455000	1,661835	4,999847
0,456000	1,741486	4,999847
0,457000	1,626892	4,999847
0,458000	1,788177	4,999847
0,459000	1,597290	4,999847
0,460000	1,830597	4,999847
0,461000	1,572266	4,426880
0,462000	1,869354	3,440399
0,463000	1,563416	4,015350
0,464000	1,837921	3,450317
0,465000	1,633453	4,996185
0,466000	1,786346	4,999847
0,467000	1,698456	4,999847
0,468000	1,741791	4,999847
0,469000	1,755829	4,999847
0,470000	1,703491	4,967651
0,471000	1,807251	3,609314
0,472000	1,670685	3,289490
0,473000	1,853333	4,384613
0,474000	1,642761	4,948578
0,475000	1,896667	4,999847
0,476000	1,619263	4,999847
0,477000	1,929016	4,999847
0,478000	1,638031	4,999847
0,479000	1,880493	4,999847
0,480000	1,707916	4,999847
0,481000	1,831818	4,999847
0,482000	1,770020	4,212494
0,483000	1,789246	4,676514
0,484000	1,825714	3,495178
0,485000	1,752167	4,999847
0,486000	1,875916	4,999847
0,487000	1,720581	4,999847
0,488000	1,923676	4,999847
0,489000	1,693115	4,999847
0,490000	1,969604	4,989319
0,491000	1,670074	4,330444
0,492000	1,977844	4,051819
0,493000	1,717987	4,327087
0,494000	1,929932	4,999847
0,495000	1,785126	4,999847
0,496000	1,885223	4,999847
0,497000	1,844788	4,999847
0,498000	1,844635	4,999847
0,499000	1,899567	4,999847
0,500000	1,808929	4,999847
0,501000	1,952515	4,126434
0,502000	1,778107	3,606110
0,503000	2,002869	4,999847
0,504000	1,751556	3,984528
0,505000	2,051239	4,999847
0,506000	1,735840	4,999847
0,507000	2,032623	4,999847
0,508000	1,803131	4,999847
0,509000	1,987915	4,999847
0,510000	1,866913	4,999847
0,511000	1,947327	3,315735
0,512000	1,927338	4,096832
0,513000	1,910553	3,948059
0,514000	1,985474	4,902954
0,515000	1,877747	4,999847
0,516000	2,041016	4,999847
0,517000	1,848145	4,999847
0,518000	2,093811	4,999847
0,519000	1,820984	4,999847
0,520000	2,138672	4,999847
0,521000	1,831055	4,096069
0,522000	2,099152	3,822632
0,523000	1,900330	3,802185
0,524000	2,059021	3,478241
0,525000	1,967163	4,999847
0,526000	2,022400	4,999847
0,527000	2,030334	4,999847
0,528000	1,988983	4,999847
0,529000	2,090607	4,999847
0,530000	1,959076	4,999847
0,531000	2,147522	3,073883
0,532000	1,931152	4,127045
0,533000	2,201080	3,718262
0,534000	1,904449	4,348145
0,535000	2,218018	4,999847
0,536000	1,944733	4,999847
0,537000	2,175598	4,999847
0,538000	2,014465	4,999847
0,539000	2,135620	4,999847
0,540000	2,079620	4,999847
0,541000	2,098694	4,226685
0,542000	2,140656	4,181824
0,543000	2,064209	4,102631
0,544000	2,198029	4,055481
0,545000	2,032471	4,999847
0,546000	2,249756	4,999847
0,547000	2,003021	4,999847
0,548000	2,292786	4,999847
0,549000	1,978912	4,999847
0,550000	2,267609	4,483795
0,551000	2,041473	3,919830
0,552000	2,219086	4,241943
0,553000	2,106781	3,918152
0,554000	2,176208	4,824677
0,555000	2,168121	4,999847
0,556000	2,137756	4,999847
0,557000	1,889038	4,999847
0,558000	1,752472	4,999847
0,559000	1,698761	4,999847
0,560000	1,678314	4,999847
0,561000	1,670380	4,402924
0,562000	1,667328	3,995209
0,563000	1,665497	4,543915
0,564000	1,664886	3,651886
0,565000	1,664734	4,999847
0,566000	1,664429	4,999847
0,567000	1,664124	4,999847
0,568000	1,664581	4,999847
0,569000	1,664124	4,999847
0,570000	1,664124	4,466705
0,571000	1,663818	3,724823
0,572000	1,663818	4,472504
0,573000	1,663971	4,069061
0,574000	1,663666	4,971313
0,575000	1,663971	4,999847
0,576000	1,663818	4,999847
0,577000	1,663513	4,999847
0,578000	1,663513	4,999847
0,579000	1,281281	4,999847
0,580000	1,083984	4,999847
0,581000	1,054535	3,813477
0,582000	0,994110	4,625244
0,583000	1,019592	4,052582
0,584000	0,990143	4,262695
0,585000	1,009979	4,999847
0,586000	0,998077	4,999847
0,587000	1,004333	4,999847
0,588000	1,007385	4,999847
0,589000	1,000366	4,999847
0,590000	1,016541	4,564362
0,591000	0,996552	3,391266
0,592000	1,025543	4,412689
0,593000	0,992737	3,694916
0,594000	1,034393	4,999847
0,595000	0,989532	4,999847
0,596000	1,043091	4,999847
0,597000	0,992737	4,999847
0,598000	1,036987	4,999847
0,599000	1,006165	4,999847
0,600000	1,029510	4,999847
0,601000	1,019440	4,999847
0,602000	1,022797	3,653107
0,603000	1,032104	4,667053
0,604000	1,016541	4,280396
0,605000	1,043243	4,999847
0,606000	1,010284	4,999847
0,607000	1,054535	4,999847
0,608000	1,005096	4,999847
0,609000	1,065216	4,999847
0,610000	1,000519	4,957123
0,611000	1,070099	3,756104
0,612000	1,011200	4,267273
0,613000	1,059570	3,294678
0,614000	1,028290	4,839020
0,615000	1,049194	4,999847
0,616000	1,043854	4,999847
0,617000	1,040497	4,999847
0,618000	1,059570	4,999847
0,619000	1,032257	4,999847
0,620000	1,073151	4,999847
0,621000	1,024628	4,999847
0,622000	1,086731	4,250793
0,623000	1,017914	3,400726
0,624000	1,100006	4,636993
0,625000	1,013489	4,999847
0,626000	1,097107	4,999847
0,627000	1,033478	4,999847
0,628000	1,082611	4,999847
0,629000	1,053925	4,999847
0,630000	1,070709	4,999847
0,631000	1,073456	3,699188
0,632000	1,059265	3,081207
0,633000	1,090851	4,128113
0,634000	1,048889	4,999847
0,635000	1,107635	4,999847
0,636000	1,041412	4,999847
0,637000	1,124268	4,999847
0,638000	1,031494	4,999847
0,639000	1,137543	4,999847
0,640000	1,034088	4,999847
0,641000	1,122284	4,999847
0,642000	1,059418	3,134918
0,643000	1,105804	3,884583
0,644000	1,082306	4,372101
0,645000	1,090240	4,999847
0,646000	1,103821	4,999847
0,647000	1,076355	4,999847
0,648000	1,124268	4,999847
0,649000	1,063995	4,999847
0,650000	1,142731	4,855957
0,651000	1,052704	3,883209
0,652000	1,160278	4,212952
0,653000	1,042938	4,180908
0,654000	1,167755	4,995117
0,655000	1,058960	4,999847
0,656000	1,146851	4,999847
0,657000	1,087494	4,999847
0,658000	1,127319	4,999847
0,659000	1,113739	4,999847
0,660000	1,109161	4,999847
0,661000	1,137695	4,758148
0,662000	1,092987	3,891602
0,663000	1,159515	4,608459
0,664000	1,078949	4,298706
0,665000	1,180267	4,999847
0,666000	1,066742	4,999847
0,667000	1,199341	4,999847
0,668000	1,056213	4,999847
0,669000	1,194305	4,999847
0,670000	1,086578	4,999847
0,671000	1,169281	3,970184
0,672000	1,118317	3,795929
0,673000	1,147003	3,972015
0,674000	1,147156	4,999847
0,675000	1,126862	4,999847
0,676000	1,173553	4,999847
0,677000	1,109314	4,999847
0,678000	1,197815	4,999847
0,679000	1,094055	4,999847
0,680000	1,220245	4,999847
0,681000	1,080475	4,386749
0,682000	1,240997	3,316193
0,683000	1,081543	4,747772
0,684000	1,219025	4,416809
0,685000	1,118164	4,999847
0,686000	1,191101	4,999847
0,687000	1,152191	4,999847
0,688000	1,166534	4,999847
0,689000	1,183014	4,999847
0,690000	1,144562	4,999847
0,691000	1,211548	4,046021
0,692000	1,125031	2,631531
0,693000	1,237030	3,759003
0,694000	1,107788	4,999847
0,695000	1,261292	4,999847
0,696000	1,092529	4,999847
0,697000	1,273651	4,999847
0,698000	1,111450	4,999847
0,699000	1,241608	4,999847
0,700000	1,150513	4,999847
0,701000	1,317902	4,999847
0,702000	1,380157	3,519440
0,703000	1,403198	4,999847
0,704000	1,412659	4,893646
0,705000	1,366272	4,999847
0,706000	1,191406	4,999847
0,707000	1,237488	4,999847
0,708000	1,192017	4,999847
0,709000	1,195831	4,999847
0,710000	1,220703	4,999847
0,711000	1,169281	3,751221
0,712000	1,251221	3,516998
0,713000	1,146851	4,821777
0,714000	1,278992	4,999847
0,715000	1,127472	4,999847
0,716000	1,305084	4,999847
0,717000	1,110382	4,999847
0,718000	1,310577	4,999847
0,719000	1,140137	4,999847
0,720000	1,273499	4,999847
0,721000	1,184540	3,824463
0,722000	1,240845	2,956848
0,723000	1,223755	4,200134
0,724000	1,211090	4,074707
0,725000	1,260223	4,999847
0,726000	1,185150	4,999847
0,727000	1,292572	4,999847
0,728000	1,162262	4,999847
0,729000	1,322174	4,999847
0,730000	1,141663	4,999847
0,731000	1,349335	3,443298
0,732000	1,128387	4,045715
0,733000	1,333466	3,399353
0,734000	1,175690	4,999847
0,735000	1,293488	4,999847
0,736000	1,221771	4,999847
0,737000	1,258698	4,999847
0,738000	1,263580	4,999847
0,739000	1,227417	4,999847
0,740000	1,300964	4,999847
0,741000	1,200104	3,807678
0,742000	1,335449	3,627777
0,743000	1,176453	4,999847
0,744000	1,366425	3,971100
0,745000	1,155090	4,999847
0,746000	1,393585	4,999847
0,747000	1,162720	4,999847
0,748000	1,354523	4,999847
0,749000	1,215363	4,999847
0,750000	1,313934	4,999847
0,751000	1,263733	4,308624
0,752000	1,277618	3,911285
0,753000	1,306610	4,030151
0,754000	1,246185	4,999847
0,755000	1,345673	4,999847
0,756000	1,218109	4,999847
0,757000	1,380310	4,999847
0,758000	1,193848	4,999847
0,759000	1,412506	4,999847
0,760000	1,172180	4,999847
0,761000	1,422424	4,079437
0,762000	1,204529	4,936371
0,763000	1,376190	4,378662
0,764000	1,259003	4,747162
0,765000	1,334076	4,999847
0,766000	1,307678	4,999847
0,767000	1,296692	4,999847
0,768000	1,351776	4,999847
0,769000	1,264496	4,999847
0,770000	1,391449	4,999847
0,771000	1,236420	3,122101
0,772000	1,427307	4,077606
0,773000	1,211548	3,493347
0,774000	1,459961	4,999847
0,775000	1,193848	4,999847
0,776000	1,445007	4,999847
0,777000	1,249695	4,999847
0,778000	1,396942	4,999847
0,779000	1,305389	4,999847
0,780000	1,354523	4,999847
0,781000	1,355591	3,540192
0,782000	1,318054	3,224792
0,783000	1,400146	4,448395
0,784000	1,285248	3,861694
0,785000	1,440277	4,999847
0,786000	1,257477	4,999847
0,787000	1,477051	4,999847
0,788000	1,232605	4,999847
0,789000	1,509552	4,999847
0,790000	1,237030	4,999847
0,791000	1,467743	3,779449
0,792000	1,299286	3,900452
0,793000	1,419373	3,600464
0,794000	1,355438	4,999847
0,795000	1,377716	4,999847
0,796000	1,406097	4,999847
0,797000	1,341095	4,999847
0,798000	1,451263	4,999847
0,799000	1,309509	4,999847
0,800000	1,492004	4,999847
0,801000	1,281891	4,540863
0,802000	1,528473	3,811188
0,803000	1,257477	4,575195
0,804000	1,544342	4,409790
0,805000	1,290436	4,999847
0,806000	1,492004	4,999847
0,807000	1,353455	4,999847
0,808000	1,444550	4,999847
0,809000	1,410065	4,999847
0,810000	1,403656	4,539032
0,811000	1,460724	4,192810
0,812000	1,367798	4,046173
0,813000	1,505890	3,711700
0,814000	1,337128	4,902954
0,815000	1,546326	4,999847
0,816000	1,310272	4,999847
0,817000	1,582947	4,999847
0,818000	1,288910	4,999847
0,819000	1,571198	4,999847
0,820000	1,349182	4,999847
0,821000	1,518402	4,572296
0,822000	1,411743	3,692780
0,823000	1,472626	4,999847
0,824000	1,467896	4,402618
0,825000	1,432495	4,999847
0,826000	1,517944	4,999847
0,827000	1,398621	4,999847
0,828000	1,562653	4,999847
0,829000	1,368713	4,999847
0,830000	1,602783	4,889984
0,831000	1,343536	3,666077
0,832000	1,638641	3,331146
0,833000	1,343994	4,530945
0,834000	1,599121	4,999847
0,835000	1,412048	4,999847
0,836000	1,548157	4,999847
0,837000	1,473846	4,999847
0,838000	1,503448	4,999847
0,839000	1,528625	4,999847
0,840000	1,465302	4,999847
0,841000	1,575775	4,999847
0,842000	1,431274	3,827667
0,843000	1,621246	3,687592
0,844000	1,404419	4,802246
0,845000	1,660767	4,999847
0,846000	1,380310	4,999847
0,847000	1,682281	4,999847
0,848000	1,409302	4,999847
0,849000	1,628113	4,999847
0,850000	1,476898	4,567719
0,851000	1,579285	4,036560
0,852000	1,537323	3,893890
0,853000	1,537018	2,558594
0,854000	1,591187	4,999847
0,855000	1,500549	4,999847
0,856000	1,639099	4,999847
0,857000	1,469269	4,999847
0,858000	1,682129	4,999847
0,859000	1,442108	4,999847
0,860000	1,720276	4,914856
0,861000	1,419220	4,306183
0,862000	1,713409	3,390198
0,863000	1,477814	4,669342
0,864000	1,659393	4,456024
0,865000	1,544189	4,961853
0,866000	1,612701	4,999847
0,867000	1,602325	4,999847
0,868000	1,572266	4,999847
0,869000	1,654053	4,999847
0,870000	1,537476	4,838104
0,871000	1,700745	4,177704
0,872000	1,507568	4,007874
0,873000	1,742706	3,284149
0,874000	1,482239	4,999847
0,875000	1,780090	4,999847
0,876000	1,477203	4,999847
0,877000	1,743774	4,999847
0,878000	1,546478	4,999847
0,879000	1,691742	4,999847
0,880000	1,610565	4,999847
0,881000	1,647491	4,247284
0,882000	1,667175	3,250275
0,883000	1,608582	3,624878
0,884000	1,717987	4,999847
0,885000	1,575623	4,961700
0,886000	1,763153	4,999847
0,887000	1,547394	4,999847
0,888000	1,804199	4,999847
0,889000	1,523132	4,999847
0,890000	1,829071	4,999847
0,891000	1,546326	4,408112
0,892000	1,775360	3,852234
0,893000	1,616058	3,682404
0,894000	1,726074	4,999847
0,895000	1,678009	4,999847
0,896000	1,683502	4,999847
0,897000	1,733093	4,999847
0,898000	1,647186	4,999847
0,899000	1,781769	4,999847
0,900000	1,615601	4,999847
0,901000	1,825867	4,537659
0,902000	1,589050	3,232727
0,903000	1,865997	4,843597
0,904000	1,566010	4,999847
0,905000	1,865997	4,999847
0,906000	1,619415	4,999847
0,907000	1,812744	4,999847
0,908000	1,686554	4,999847
0,909000	1,765747	4,999847
0,910000	1,746521	4,640198
0,911000	1,725616	3,725433
0,912000	1,799774	3,490448
0,913000	1,691132	3,814392
0,914000	1,847382	4,999847
0,915000	1,661682	4,999847
0,916000	1,892090	4,999847
0,917000	1,635895	4,999847
0,918000	1,934662	4,999847
0,919000	1,625366	4,999847
0,920000	1,908112	4,999847
0,921000	1,694641	4,999847
0,922000	1,858063	3,766327
0,923000	1,759796	4,999847
0,924000	1,813812	4,537964
0,925000	1,817322	4,999847
0,926000	1,774902	4,999847
0,927000	1,869202	4,999847
0,928000	1,741638	4,999847
0,929000	1,918182	4,999847
0,930000	1,712494	4,999847
0,931000	1,965485	3,770599
0,932000	1,688080	3,027954
0,933000	2,003021	3,661194
0,934000	1,704712	4,999847
0,935000	1,957245	4,999847
0,936000	1,773834	4,999847
0,937000	1,911926	4,999847
0,938000	1,835785	4,999847
0,939000	1,871033	4,999847
0,940000	1,892700	4,999847
0,941000	1,832886	4,451141
0,942000	1,946564	3,217773
0,943000	1,799316	4,782104
0,944000	1,996613	4,785767
0,945000	1,771088	4,999847
0,946000	2,047882	4,999847
0,947000	1,747589	4,999847
0,948000	2,060699	4,999847
0,949000	1,792145	4,999847
0,950000	2,016296	4,999847
0,951000	1,858673	3,722839
0,952000	1,974792	3,350677
0,953000	1,920929	4,824982
0,954000	1,936951	4,999847
0,955000	1,980133	4,999847
0,956000	1,903229	4,999847
0,957000	2,036743	4,999847
0,958000	1,872559	4,999847
0,959000	2,090912	4,999847
0,960000	1,845093	4,999847
0,961000	2,143097	4,117737
0,962000	1,826477	3,521881
0,963000	2,128906	4,516144
0,964000	1,893005	4,420166
0,965000	2,087860	4,999847
0,966000	1,961365	4,999847
0,967000	2,050171	4,999847
0,968000	2,026215	4,999847
0,969000	2,016296	4,999847
0,970000	2,087250	4,999847
0,971000	1,984711	3,335876
0,972000	2,145538	3,693237
0,973000	1,956177	3,578796
0,974000	2,199860	4,999847
0,975000	1,930084	4,999847
0,976000	2,245331	4,999847
0,977000	1,937408	4,999847
0,978000	2,203369	4,999847
0,979000	2,006683	4,999847
0,980000	2,161713	4,999847
0,981000	2,072754	4,676208
0,982000	2,122955	3,524323
0,983000	2,134705	4,557190
0,984000	2,086945	4,687653
0,985000	2,192841	4,999847
0,986000	2,053375	4,999847
0,987000	2,245483	4,999847
0,988000	2,022858	4,999847
0,989000	2,290344	4,999847
0,990000	1,994476	4,999847
0,991000	2,292023	3,455353
0,992000	2,028351	2,747498
0,993000	2,239685	4,999847
0,994000	2,095184	4,999847
0,995000	2,195587	4,999847
0,996000	1,924286	4,999847
0,997000	1,768494	4,999847
0,998000	1,705322	4,999847
0,999000	1,680756	4,999847

