LabVIEW Measurement	
Writer_Version	2
Reader_Version	2
Separator	Tab
Decimal_Separator	,
Multi_Headings	Yes
X_Columns	One
Time_Pref	Absolute
Operator	d.nicolai
Date	2023/11/09
Time	16:04:05,6565121999996605588
***End_of_Header***	
	
Channels	2		
Samples	1000	1000	
Date	2023/11/09	2023/11/09	
Time	16:04:48,1965134999998987434	16:04:48,1965134999998987434	
Y_Unit_Label	Volts	Volts	
X_Dimension	Time	Time	
X0	0,0000000000000000E+0	0,0000000000000000E+0	
Delta_X	0,001000	0,001000	
***End_of_Header***			
X_Value	powebox	triggerbox	Comment
0,000000	0,531921	0,874939
0,001000	0,627136	4,631348
0,002000	0,561371	4,999847
0,003000	0,622711	4,999847
0,004000	0,581512	4,999847
0,005000	0,607147	4,999847
0,006000	0,581970	4,999847
0,007000	0,586090	4,999847
0,008000	0,607147	4,999847
0,009000	0,579376	3,884888
0,010000	0,595551	4,043732
0,011000	0,522766	3,569183
0,012000	0,610809	3,639679
0,013000	0,533905	4,999847
0,014000	0,634613	4,999847
0,015000	0,530396	4,999847
0,016000	0,631256	4,999847
0,017000	0,553894	4,999847
0,018000	0,614166	4,803619
0,019000	0,575867	2,962799
0,020000	0,598907	3,936310
0,021000	0,595551	4,675598
0,022000	0,585022	4,130402
0,023000	0,613861	4,999847
0,024000	0,572357	4,999847
0,025000	0,630646	4,999847
0,026000	0,561218	4,999847
0,027000	0,646057	4,999847
0,028000	0,551910	4,999847
0,029000	0,660400	4,110107
0,030000	0,553589	3,758240
0,031000	0,644684	4,999847
0,032000	0,577393	4,098053
0,033000	0,627136	4,771729
0,034000	0,598755	4,999847
0,035000	0,611267	4,999847
0,036000	0,618896	4,999847
0,037000	0,597839	4,999847
0,038000	0,637512	4,999847
0,039000	0,585937	2,873230
0,040000	0,653839	3,457947
0,041000	0,575256	3,958282
0,042000	0,669708	4,027100
0,043000	0,565491	4,999847
0,044000	0,676575	4,999847
0,045000	0,578461	4,999847
0,046000	0,657959	4,999847
0,047000	0,602264	4,999847
0,048000	0,641327	4,999847
0,049000	0,624084	4,130096
0,050000	0,626373	4,469757
0,051000	0,643921	4,225616
0,052000	0,612946	3,274994
0,053000	0,662079	4,999847
0,054000	0,600586	4,999847
0,055000	0,679169	4,999847
0,056000	0,590363	4,999847
0,057000	0,694733	4,999847
0,058000	0,581207	4,999847
0,059000	0,691376	3,680725
0,060000	0,605164	4,160156
0,061000	0,672302	4,999847
0,062000	0,628967	4,084015
0,063000	0,656433	4,999847
0,064000	0,650177	4,999847
0,065000	0,641785	4,999847
0,066000	0,670471	4,999847
0,067000	0,628815	4,999847
0,068000	0,688629	4,661407
0,069000	0,617523	3,697510
0,070000	0,705109	2,060394
0,071000	0,607605	4,999847
0,072000	0,720367	2,489624
0,073000	0,607758	4,999847
0,074000	0,706024	4,999847
0,075000	0,633240	4,999847
0,076000	0,688019	4,999847
0,077000	0,656738	4,999847
0,078000	0,672150	4,999847
0,079000	0,677795	3,428802
0,080000	0,657806	3,429718
0,081000	0,697021	4,921570
0,082000	0,645294	4,259338
0,083000	0,715332	4,999847
0,084000	0,634766	4,999847
0,085000	0,731354	4,999847
0,086000	0,625458	4,999847
0,087000	0,741272	4,999847
0,088000	0,636597	4,999847
0,089000	0,721588	4,052429
0,090000	0,661469	4,999847
0,091000	0,704193	2,345428
0,092000	0,684509	3,544006
0,093000	0,688782	4,999847
0,094000	0,705109	4,999847
0,095000	0,675201	4,999847
0,096000	0,724182	4,999847
0,097000	0,663147	4,999847
0,098000	0,741882	4,582062
0,099000	0,652618	3,273773
0,100000	0,757446	3,995361
0,101000	0,643616	3,872223
0,102000	0,756378	4,999847
0,103000	0,665741	4,999847
0,104000	0,737457	4,999847
0,105000	0,690155	4,999847
0,106000	0,720825	4,999847
0,107000	0,712433	4,999847
0,108000	0,706024	4,933624
0,109000	0,733185	3,840485
0,110000	0,692444	3,555603
0,111000	0,751801	4,696350
0,112000	0,680695	2,468567
0,113000	0,725708	4,999847
0,114000	0,636902	4,999847
0,115000	0,769501	4,999847
0,116000	0,664520	4,999847
0,117000	0,783997	4,999847
0,118000	0,706024	4,678802
0,119000	0,772247	3,359985
0,120000	0,732117	2,770538
0,121000	0,757904	4,355469
0,122000	0,753937	4,999847
0,123000	0,742645	4,999847
0,124000	0,773163	4,999847
0,125000	0,728607	4,999847
0,126000	0,791016	4,999847
0,127000	0,709076	4,999847
0,128000	0,788116	4,977112
0,129000	0,719299	3,524628
0,130000	0,808258	4,075012
0,131000	0,716248	4,156952
0,132000	0,807343	3,892822
0,133000	0,735321	4,999847
0,134000	0,799103	4,999847
0,135000	0,761719	4,999847
0,136000	0,786896	4,999847
0,137000	0,778961	4,999847
0,138000	0,773468	4,698334
0,139000	0,794067	3,748932
0,140000	0,762634	4,871521
0,141000	0,809326	3,458557
0,142000	0,746765	4,999847
0,143000	0,820770	4,999847
0,144000	0,740356	4,999847
0,145000	0,837860	4,999847
0,146000	0,758209	4,999847
0,147000	0,848694	4,999847
0,148000	0,779419	4,999847
0,149000	0,852966	3,582916
0,150000	0,811005	3,169250
0,151000	0,834351	3,193665
0,152000	0,817719	4,280853
0,153000	0,806427	4,999847
0,154000	0,826111	4,999847
0,155000	0,792694	4,999847
0,156000	0,841675	4,999847
0,157000	0,776215	4,999847
0,158000	0,853882	4,153748
0,159000	0,767059	3,681946
0,160000	0,867004	3,756104
0,161000	0,792694	4,297028
0,162000	0,866699	4,999847
0,163000	0,794830	4,999847
0,164000	0,857391	4,999847
0,165000	0,823517	4,999847
0,166000	0,844879	4,999847
0,167000	0,840454	4,999847
0,168000	0,817108	4,999847
0,169000	0,849762	4,791718
0,170000	0,816803	3,966522
0,171000	0,872498	3,752747
0,172000	0,800018	3,756561
0,173000	0,880585	4,999847
0,174000	0,794983	4,999847
0,175000	0,886383	4,999847
0,176000	0,805359	4,999847
0,177000	0,883636	4,999847
0,178000	0,825043	4,152222
0,179000	0,855255	4,135437
0,180000	0,832214	3,681335
0,181000	0,838013	3,404388
0,182000	0,851135	4,999847
0,183000	0,823822	4,999847
0,184000	0,768890	4,999847
0,185000	0,757294	4,999847
0,186000	0,751648	4,999847
0,187000	0,803223	4,999847
0,188000	0,864410	4,999847
0,189000	0,851746	4,287109
0,190000	0,842590	3,442688
0,191000	0,862274	4,566345
0,192000	0,821686	4,588623
0,193000	0,875244	4,999847
0,194000	0,801392	4,999847
0,195000	0,884094	4,999847
0,196000	0,790405	4,999847
0,197000	0,891876	4,999847
0,198000	0,804138	4,999847
0,199000	0,889282	3,829803
0,200000	0,821533	3,837585
0,201000	0,877380	3,184662
0,202000	0,843353	4,999847
0,203000	0,864410	4,999847
0,204000	0,865326	4,999847
0,205000	0,834045	4,999847
0,206000	0,873718	4,999847
0,207000	0,824127	4,999847
0,208000	0,887604	4,999847
0,209000	0,805511	4,595032
0,210000	0,892334	3,154602
0,211000	0,813599	3,084564
0,212000	0,896759	3,185883
0,213000	0,822449	4,665375
0,214000	0,894623	4,999847
0,215000	0,828094	4,999847
0,216000	0,885162	4,999847
0,217000	0,864716	4,999847
0,218000	0,861511	4,999847
0,219000	0,878601	3,817139
0,220000	0,855560	3,240051
0,221000	0,892181	4,404907
0,222000	0,839539	4,526367
0,223000	0,896149	4,999847
0,224000	0,831604	4,999847
0,225000	0,898590	4,999847
0,226000	0,836639	4,999847
0,227000	0,898285	4,999847
0,228000	0,856476	4,999847
0,229000	0,895844	4,350281
0,230000	0,795746	2,876129
0,231000	0,718536	4,391937
0,232000	0,681305	4,127960
0,233000	0,665283	4,999847
0,234000	0,657654	4,999847
0,235000	0,653076	4,999847
0,236000	0,650330	4,999847
0,237000	0,650024	4,999847
0,238000	0,649719	4,999847
0,239000	0,649567	3,311310
0,240000	0,650177	4,636993
0,241000	0,650330	3,218536
0,242000	0,649414	4,999847
0,243000	0,649109	4,999847
0,244000	0,647430	4,999847
0,245000	0,648499	4,999847
0,246000	0,649109	4,999847
0,247000	0,649719	4,999847
0,248000	0,649567	4,999847
0,249000	0,650482	3,539581
0,250000	0,650635	2,935486
0,251000	0,649719	4,180756
0,252000	0,635681	4,277191
0,253000	0,620575	4,999847
0,254000	0,613708	4,999847
0,255000	0,610199	4,999847
0,256000	0,606995	4,999847
0,257000	0,585937	4,999847
0,258000	0,593872	4,938049
0,259000	0,599670	3,520966
0,260000	0,607147	4,271545
0,261000	0,607910	3,642731
0,262000	0,609894	4,999847
0,263000	0,613556	4,999847
0,264000	0,615692	4,999847
0,265000	0,615082	4,999847
0,266000	0,614929	4,999847
0,267000	0,614777	4,999847
0,268000	0,610657	4,999847
0,269000	0,607300	4,491730
0,270000	0,604248	3,868561
0,271000	0,601349	3,818665
0,272000	0,601044	4,366608
0,273000	0,599670	4,999847
0,274000	0,601654	4,999847
0,275000	0,602875	4,999847
0,276000	0,604706	4,999847
0,277000	0,606232	4,999847
0,278000	0,604553	4,999847
0,279000	0,603180	3,867950
0,280000	0,605316	3,869324
0,281000	0,605621	3,223114
0,282000	0,607300	4,999847
0,283000	0,607147	4,999847
0,284000	0,610352	4,999847
0,285000	0,610809	4,999847
0,286000	0,614166	4,999847
0,287000	0,613556	4,999847
0,288000	0,614929	4,999847
0,289000	0,612030	3,946075
0,290000	0,610352	3,106232
0,291000	0,612640	4,258728
0,292000	0,614166	2,483368
0,293000	0,611420	4,999847
0,294000	0,600739	4,999847
0,295000	0,592651	4,999847
0,296000	0,587616	4,999847
0,297000	0,591125	4,999847
0,298000	0,606079	4,617767
0,299000	0,614777	2,928772
0,300000	0,614166	2,889252
0,301000	0,615540	3,655853
0,302000	0,614319	4,999847
0,303000	0,614166	4,999847
0,304000	0,607910	4,999847
0,305000	0,610352	4,999847
0,306000	0,608978	4,999847
0,307000	0,610046	4,999847
0,308000	0,611877	4,999847
0,309000	0,610809	3,955994
0,310000	0,604401	3,830566
0,311000	0,605469	3,800201
0,312000	0,604248	2,915497
0,313000	0,602570	4,999847
0,314000	0,605927	4,999847
0,315000	0,605621	4,999847
0,316000	0,606842	4,999847
0,317000	0,594940	4,999847
0,318000	0,561981	4,999847
0,319000	0,581665	3,066864
0,320000	0,595551	3,520813
0,321000	0,599823	4,005890
0,322000	0,599518	4,999847
0,323000	0,602264	4,999847
0,324000	0,598602	4,999847
0,325000	0,601196	4,999847
0,326000	0,601654	4,999847
0,327000	0,601654	4,999847
0,328000	0,601044	4,999847
0,329000	0,604553	4,312286
0,330000	0,599823	3,270264
0,331000	0,597382	4,205933
0,332000	0,595093	4,370270
0,333000	0,600739	4,999847
0,334000	0,601501	4,999847
0,335000	0,604095	4,999847
0,336000	0,600586	4,999847
0,337000	0,598602	4,999847
0,338000	0,601654	4,999847
0,339000	0,601501	3,235779
0,340000	0,604401	3,997955
0,341000	0,605316	3,433990
0,342000	0,613403	4,901428
0,343000	0,599365	4,999847
0,344000	0,591278	4,999847
0,345000	0,588531	4,999847
0,346000	0,594025	4,999847
0,347000	0,593872	4,999847
0,348000	0,596771	4,999847
0,349000	0,595856	4,071045
0,350000	0,596313	2,568665
0,351000	0,592499	4,405365
0,352000	0,595398	4,225464
0,353000	0,593719	4,999847
0,354000	0,595245	4,999847
0,355000	0,598907	4,999847
0,356000	0,596619	4,999847
0,357000	0,595856	4,999847
0,358000	0,592346	4,984894
0,359000	0,598145	3,800507
0,360000	0,595703	4,999847
0,361000	0,597534	3,074646
0,362000	0,594788	4,999847
0,363000	0,594635	4,999847
0,364000	0,598907	4,999847
0,365000	0,605164	4,999847
0,366000	0,607147	4,999847
0,367000	0,608978	4,999847
0,368000	0,610809	4,999847
0,369000	0,608978	4,397888
0,370000	0,609741	4,446564
0,371000	0,602112	2,927856
0,372000	0,607910	4,203033
0,373000	0,601807	4,999847
0,374000	0,611420	4,999847
0,375000	0,605164	4,999847
0,376000	0,609894	4,999847
0,377000	0,607758	4,999847
0,378000	0,612793	4,919281
0,379000	0,613556	3,653717
0,380000	0,614777	4,943390
0,381000	0,617981	3,602142
0,382000	0,617218	4,999847
0,383000	0,616608	4,999847
0,384000	0,605621	4,999847
0,385000	0,607758	4,999847
0,386000	0,603333	4,999847
0,387000	0,610809	4,999847
0,388000	0,597229	4,781952
0,389000	0,606537	4,433136
0,390000	0,597992	3,784332
0,391000	0,598907	4,715424
0,392000	0,593719	4,463806
0,393000	0,602264	4,926147
0,394000	0,604095	4,999847
0,395000	0,605621	4,999847
0,396000	0,608978	4,999847
0,397000	0,598907	4,999847
0,398000	0,611115	4,984589
0,399000	0,606842	4,125519
0,400000	0,617065	4,152985
0,401000	0,608368	3,690338
0,402000	0,621033	4,605103
0,403000	0,605316	4,999847
0,404000	0,617828	4,999847
0,405000	0,609894	4,999847
0,406000	0,619659	4,999847
0,407000	0,614319	4,999847
0,408000	0,614929	4,999847
0,409000	0,615387	4,620972
0,410000	0,614014	4,206848
0,411000	0,619659	3,647614
0,412000	0,613861	4,528046
0,413000	0,625763	4,999847
0,414000	0,612793	4,999847
0,415000	0,631409	4,999847
0,416000	0,614319	4,999847
0,417000	0,634308	4,999847
0,418000	0,616150	4,512939
0,419000	0,631714	4,310303
0,420000	0,589142	3,208923
0,421000	0,607605	3,354492
0,422000	0,614319	4,999847
0,423000	0,617218	4,999847
0,424000	0,622711	4,999847
0,425000	0,617065	4,999847
0,426000	0,630646	4,999847
0,427000	0,620575	4,999847
0,428000	0,639648	4,999847
0,429000	0,618286	3,998871
0,430000	0,643158	2,585144
0,431000	0,617828	4,969025
0,432000	0,647125	3,530273
0,433000	0,628662	4,824524
0,434000	0,644836	4,999847
0,435000	0,635529	4,999847
0,436000	0,644226	4,999847
0,437000	0,642395	4,999847
0,438000	0,641785	4,633942
0,439000	0,649261	4,126892
0,440000	0,636444	3,063812
0,441000	0,650482	3,820496
0,442000	0,633698	4,572601
0,443000	0,657501	4,999847
0,444000	0,625458	4,999847
0,445000	0,659485	4,999847
0,446000	0,622559	4,999847
0,447000	0,656281	4,999847
0,448000	0,633698	4,999847
0,449000	0,654755	4,566040
0,450000	0,646362	4,513702
0,451000	0,650787	3,218994
0,452000	0,650787	3,553925
0,453000	0,648651	4,880066
0,454000	0,661316	4,999847
0,455000	0,639038	4,999847
0,456000	0,663452	4,999847
0,457000	0,634003	4,999847
0,458000	0,668793	4,999847
0,459000	0,635834	3,253326
0,460000	0,677948	4,448853
0,461000	0,640717	3,294525
0,462000	0,671844	4,608002
0,463000	0,646210	4,999847
0,464000	0,664062	4,999847
0,465000	0,655060	4,999847
0,466000	0,659637	4,999847
0,467000	0,664368	4,999847
0,468000	0,652924	4,962616
0,469000	0,671844	3,944550
0,470000	0,652161	2,692566
0,471000	0,682526	3,510895
0,472000	0,642548	3,892517
0,473000	0,686035	4,999847
0,474000	0,645447	4,999847
0,475000	0,694733	4,999847
0,476000	0,659943	4,999847
0,477000	0,690155	4,999847
0,478000	0,668945	4,671478
0,479000	0,681610	4,004669
0,480000	0,673065	3,011475
0,481000	0,671539	4,549408
0,482000	0,683746	3,563538
0,483000	0,665283	4,999847
0,484000	0,690002	4,999847
0,485000	0,658417	4,999847
0,486000	0,697784	4,999847
0,487000	0,658417	4,999847
0,488000	0,708008	4,999847
0,489000	0,656586	4,288940
0,490000	0,708466	3,697205
0,491000	0,670624	4,999847
0,492000	0,699158	2,798615
0,493000	0,678864	4,999847
0,494000	0,690155	4,999847
0,495000	0,685577	4,999847
0,496000	0,676880	4,999847
0,497000	0,691833	4,999847
0,498000	0,669250	4,567719
0,499000	0,703430	4,213104
0,500000	0,657654	2,964630
0,501000	0,710297	3,879700
0,502000	0,648804	4,999847
0,503000	0,717926	4,999847
0,504000	0,660095	4,999847
0,505000	0,714264	4,999847
0,506000	0,672150	4,999847
0,507000	0,699921	4,999847
0,508000	0,682831	4,999847
0,509000	0,690155	4,757233
0,510000	0,695038	3,631439
0,511000	0,682526	4,877014
0,512000	0,711823	3,263855
0,513000	0,680847	4,999847
0,514000	0,723419	4,999847
0,515000	0,679779	4,999847
0,516000	0,737000	4,999847
0,517000	0,671844	4,999847
0,518000	0,745697	4,999847
0,519000	0,684509	3,425446
0,520000	0,735779	2,718964
0,521000	0,697937	4,923248
0,522000	0,704651	4,937897
0,523000	0,693054	4,999847
0,524000	0,709686	4,999847
0,525000	0,723724	4,999847
0,526000	0,701904	4,999847
0,527000	0,730591	4,999847
0,528000	0,693817	4,737396
0,529000	0,745850	3,983459
0,530000	0,689697	3,002319
0,531000	0,757294	4,448242
0,532000	0,682068	3,350677
0,533000	0,761414	4,999847
0,534000	0,699921	4,999847
0,535000	0,749512	4,999847
0,536000	0,715790	4,999847
0,537000	0,738831	4,999847
0,538000	0,731659	4,999847
0,539000	0,724487	2,767181
0,540000	0,741425	4,436340
0,541000	0,710602	3,757324
0,542000	0,751648	4,570007
0,543000	0,697174	4,999847
0,544000	0,760956	4,999847
0,545000	0,693359	4,999847
0,546000	0,776215	4,999847
0,547000	0,699310	4,999847
0,548000	0,777283	4,999847
0,549000	0,715637	3,349762
0,550000	0,750580	4,269257
0,551000	0,718231	3,679810
0,552000	0,745697	3,805237
0,553000	0,745850	4,999847
0,554000	0,738983	4,999847
0,555000	0,764160	4,999847
0,556000	0,733490	4,999847
0,557000	0,780029	4,999847
0,558000	0,717926	4,999847
0,559000	0,788574	3,652649
0,560000	0,709991	3,607635
0,561000	0,801697	3,848877
0,562000	0,723724	4,388123
0,563000	0,799103	4,999847
0,564000	0,737000	4,999847
0,565000	0,779114	4,999847
0,566000	0,748749	4,999847
0,567000	0,754852	4,999847
0,568000	0,762482	4,999847
0,569000	0,743713	4,441223
0,570000	0,776978	3,423920
0,571000	0,726471	4,313507
0,572000	0,787506	3,467255
0,573000	0,706635	4,999847
0,574000	0,797119	4,999847
0,575000	0,708771	4,999847
0,576000	0,816040	4,999847
0,577000	0,731964	4,999847
0,578000	0,805359	4,660645
0,579000	0,748749	3,759460
0,580000	0,792694	4,777985
0,581000	0,772705	3,466949
0,582000	0,780029	4,918518
0,583000	0,790710	4,999847
0,584000	0,773163	4,999847
0,585000	0,809174	4,999847
0,586000	0,764923	4,999847
0,587000	0,826111	4,999847
0,588000	0,749664	4,520874
0,589000	0,838318	4,922028
0,590000	0,745392	4,651642
0,591000	0,847321	3,325043
0,592000	0,763702	4,268341
0,593000	0,837555	4,999847
0,594000	0,781403	4,999847
0,595000	0,811615	4,999847
0,596000	0,793610	4,999847
0,597000	0,808563	4,999847
0,598000	0,818939	4,356232
0,599000	0,789948	3,728027
0,600000	0,832062	4,198914
0,601000	0,776825	2,898254
0,602000	0,848846	4,889679
0,603000	0,754547	4,999847
0,604000	0,859375	4,999847
0,605000	0,769501	4,999847
0,606000	0,869141	4,999847
0,607000	0,786438	4,999847
0,608000	0,851593	4,310760
0,609000	0,802612	3,832245
0,610000	0,829773	4,532318
0,611000	0,820007	3,327484
0,612000	0,816803	4,035492
0,613000	0,839386	4,999847
0,614000	0,798035	4,999847
0,615000	0,854340	4,999847
0,616000	0,781860	4,999847
0,617000	0,867462	4,999847
0,618000	0,769196	4,732513
0,619000	0,879822	4,020691
0,620000	0,793915	3,912811
0,621000	0,884399	3,372345
0,622000	0,770416	4,999847
0,623000	0,757599	4,999847
0,624000	0,751343	4,999847
0,625000	0,801544	4,999847
0,626000	0,793762	4,999847
0,627000	0,857239	4,999847
0,628000	0,783691	4,999847
0,629000	0,874023	4,852295
0,630000	0,779877	3,504944
0,631000	0,887146	4,645538
0,632000	0,801544	3,973083
0,633000	0,887756	4,999847
0,634000	0,819244	4,999847
0,635000	0,867767	4,999847
0,636000	0,834656	4,999847
0,637000	0,843658	4,999847
0,638000	0,850525	4,190826
0,639000	0,827789	4,400940
0,640000	0,867157	3,861694
0,641000	0,811920	3,336639
0,642000	0,881195	4,999847
0,643000	0,795135	4,999847
0,644000	0,888214	4,999847
0,645000	0,797577	4,999847
0,646000	0,893097	4,999847
0,647000	0,820160	4,999847
0,648000	0,890198	4,999847
0,649000	0,838623	4,888611
0,650000	0,868073	4,055634
0,651000	0,852966	4,074860
0,652000	0,846710	3,699036
0,653000	0,868988	4,351959
0,654000	0,827942	4,999847
0,655000	0,880737	4,999847
0,656000	0,815735	4,999847
0,657000	0,889740	4,999847
0,658000	0,798340	4,675751
0,659000	0,893402	4,233856
0,660000	0,808105	3,542480
0,661000	0,892944	3,983307
0,662000	0,832062	4,958191
0,663000	0,888672	4,999847
0,664000	0,853119	4,999847
0,665000	0,879822	4,999847
0,666000	0,873871	4,999847
0,667000	0,851440	4,999847
0,668000	0,741577	4,999847
0,669000	0,689697	4,999847
0,670000	0,665741	3,537292
0,671000	0,655060	4,765015
0,672000	0,650024	4,115295
0,673000	0,647125	4,999847
0,674000	0,646057	4,999847
0,675000	0,645752	4,999847
0,676000	0,645447	4,999847
0,677000	0,645142	4,999847
0,678000	0,645142	4,999847
0,679000	0,644684	3,932495
0,680000	0,644684	4,087677
0,681000	0,644531	3,027802
0,682000	0,644379	4,999847
0,683000	0,644379	4,999847
0,684000	0,644836	4,999847
0,685000	0,644684	4,999847
0,686000	0,645294	4,999847
0,687000	0,645142	4,999847
0,688000	0,642242	4,999847
0,689000	0,615845	4,109192
0,690000	0,600891	4,064789
0,691000	0,588531	3,786469
0,692000	0,592041	3,805542
0,693000	0,595093	4,971008
0,694000	0,595398	4,999847
0,695000	0,592804	4,999847
0,696000	0,590057	4,999847
0,697000	0,594482	4,999847
0,698000	0,596313	4,972076
0,699000	0,591583	3,739777
0,700000	0,589600	4,243774
0,701000	0,586700	3,414764
0,702000	0,584412	4,999847
0,703000	0,588226	4,999847
0,704000	0,583038	4,999847
0,705000	0,589294	4,999847
0,706000	0,584412	4,999847
0,707000	0,586700	4,999847
0,708000	0,590668	4,999847
0,709000	0,592957	4,258881
0,710000	0,590363	3,817444
0,711000	0,591431	4,999847
0,712000	0,594025	2,980347
0,713000	0,597534	4,999847
0,714000	0,598297	4,999847
0,715000	0,598297	4,999847
0,716000	0,596466	4,999847
0,717000	0,595856	4,999847
0,718000	0,590973	4,999847
0,719000	0,588531	4,049530
0,720000	0,583191	3,515625
0,721000	0,581360	3,697815
0,722000	0,580902	4,658051
0,723000	0,576477	4,999847
0,724000	0,574036	4,999847
0,725000	0,570374	4,999847
0,726000	0,568695	4,999847
0,727000	0,549164	4,999847
0,728000	0,544891	4,819641
0,729000	0,558929	4,455566
0,730000	0,559387	4,014740
0,731000	0,555115	4,999847
0,732000	0,551147	2,678986
0,733000	0,559540	4,999847
0,734000	0,563049	4,999847
0,735000	0,566254	4,999847
0,736000	0,565796	4,999847
0,737000	0,568085	4,999847
0,738000	0,572205	4,801178
0,739000	0,575867	3,455353
0,740000	0,578156	3,696899
0,741000	0,567474	4,741516
0,742000	0,555573	4,248199
0,743000	0,540161	4,999847
0,744000	0,534515	4,999847
0,745000	0,533600	4,999847
0,746000	0,541077	4,999847
0,747000	0,542908	4,999847
0,748000	0,549164	4,999847
0,749000	0,545959	3,892059
0,750000	0,541992	2,793427
0,751000	0,533600	4,570312
0,752000	0,534821	3,707428
0,753000	0,535583	4,999847
0,754000	0,537262	4,999847
0,755000	0,539551	4,999847
0,756000	0,535583	4,999847
0,757000	0,532227	4,999847
0,758000	0,531769	4,999847
0,759000	0,534058	3,777771
0,760000	0,530853	4,020996
0,761000	0,532684	3,619995
0,762000	0,530090	4,999847
0,763000	0,532684	4,999847
0,764000	0,533447	4,999847
0,765000	0,536804	4,999847
0,766000	0,534058	4,999847
0,767000	0,532684	4,999847
0,768000	0,532227	4,999847
0,769000	0,530548	4,633026
0,770000	0,536652	3,406525
0,771000	0,538483	4,259644
0,772000	0,538330	3,439636
0,773000	0,538940	4,798279
0,774000	0,541077	4,999847
0,775000	0,544739	4,999847
0,776000	0,535736	4,999847
0,777000	0,545502	4,999847
0,778000	0,549316	4,966736
0,779000	0,546417	3,752899
0,780000	0,528259	4,608765
0,781000	0,542603	3,831940
0,782000	0,552979	4,039307
0,783000	0,558014	4,999847
0,784000	0,554352	4,999847
0,785000	0,511780	4,999847
0,786000	0,521088	4,999847
0,787000	0,533752	4,999847
0,788000	0,552826	4,999847
0,789000	0,559235	4,027863
0,790000	0,572662	3,284607
0,791000	0,575867	3,785095
0,792000	0,575256	4,115448
0,793000	0,575867	4,999847
0,794000	0,577545	4,999847
0,795000	0,575714	4,999847
0,796000	0,571594	4,999847
0,797000	0,571594	4,999847
0,798000	0,573578	4,401855
0,799000	0,577545	3,443451
0,800000	0,578308	2,880554
0,801000	0,578918	4,039917
0,802000	0,581055	4,477997
0,803000	0,587158	4,999847
0,804000	0,582275	4,999847
0,805000	0,588226	4,999847
0,806000	0,584259	4,999847
0,807000	0,582733	4,999847
0,808000	0,579224	4,698181
0,809000	0,583649	4,729309
0,810000	0,584412	3,417816
0,811000	0,584869	3,993073
0,812000	0,588379	3,848114
0,813000	0,585175	4,999847
0,814000	0,588074	4,999847
0,815000	0,583801	4,999847
0,816000	0,589294	4,999847
0,817000	0,583649	4,999847
0,818000	0,592804	4,358063
0,819000	0,584564	3,743134
0,820000	0,595245	3,869476
0,821000	0,591583	2,812195
0,822000	0,597687	4,842682
0,823000	0,594025	4,999847
0,824000	0,599365	4,999847
0,825000	0,602112	4,999847
0,826000	0,594025	4,999847
0,827000	0,597534	4,999847
0,828000	0,593414	4,645844
0,829000	0,602264	4,064178
0,830000	0,587006	3,013153
0,831000	0,604858	3,421173
0,832000	0,598145	3,330994
0,833000	0,612640	4,999847
0,834000	0,596008	4,999847
0,835000	0,604401	4,999847
0,836000	0,595703	4,999847
0,837000	0,600128	4,999847
0,838000	0,597992	4,999847
0,839000	0,590210	3,572998
0,840000	0,595551	4,276123
0,841000	0,588837	4,357300
0,842000	0,599518	4,999847
0,843000	0,583344	4,999847
0,844000	0,604095	4,999847
0,845000	0,585175	4,999847
0,846000	0,611877	4,999847
0,847000	0,590668	4,999847
0,848000	0,616455	4,999847
0,849000	0,594025	4,999847
0,850000	0,612030	3,272858
0,851000	0,599365	4,050140
0,852000	0,601959	3,866119
0,853000	0,591431	4,999847
0,854000	0,589447	4,999847
0,855000	0,601349	4,999847
0,856000	0,585937	4,999847
0,857000	0,606995	4,999847
0,858000	0,581360	4,898376
0,859000	0,613708	3,387299
0,860000	0,592499	4,228516
0,861000	0,627747	3,180695
0,862000	0,591125	4,999847
0,863000	0,624237	4,999847
0,864000	0,595551	4,999847
0,865000	0,616455	4,999847
0,866000	0,606995	4,999847
0,867000	0,616913	4,999847
0,868000	0,618591	4,728394
0,869000	0,612030	4,417267
0,870000	0,619812	3,842316
0,871000	0,597687	3,913727
0,872000	0,623932	4,213104
0,873000	0,588074	4,999847
0,874000	0,628815	4,999847
0,875000	0,590363	4,999847
0,876000	0,640411	4,999847
0,877000	0,598755	4,999847
0,878000	0,636597	4,425812
0,879000	0,614624	4,144135
0,880000	0,634460	4,147491
0,881000	0,624390	3,569641
0,882000	0,629730	4,999847
0,883000	0,634766	4,999847
0,884000	0,623627	4,999847
0,885000	0,640869	4,999847
0,886000	0,603943	4,999847
0,887000	0,642395	4,999847
0,888000	0,608215	4,698181
0,889000	0,654449	4,837494
0,890000	0,607147	3,934479
0,891000	0,658569	4,409637
0,892000	0,617523	4,456177
0,893000	0,651398	4,783936
0,894000	0,628510	4,999847
0,895000	0,645905	4,999847
0,896000	0,642853	4,999847
0,897000	0,646667	4,999847
0,898000	0,668335	3,969879
0,899000	0,651703	4,592743
0,900000	0,675964	3,911438
0,901000	0,642090	3,906250
0,902000	0,680695	4,595337
0,903000	0,632172	4,999847
0,904000	0,686035	4,999847
0,905000	0,629425	4,999847
0,906000	0,686188	4,999847
0,907000	0,652313	4,999847
0,908000	0,681458	4,920959
0,909000	0,657196	4,494476
0,910000	0,670013	3,290100
0,911000	0,672455	4,698639
0,912000	0,665741	3,138580
0,913000	0,682220	4,999847
0,914000	0,663147	4,999847
0,915000	0,693817	4,999847
0,916000	0,658569	4,999847
0,917000	0,701752	4,999847
0,918000	0,654144	4,545288
0,919000	0,710754	4,373474
0,920000	0,656281	3,164062
0,921000	0,703125	3,915863
0,922000	0,668335	4,927368
0,923000	0,692749	4,999847
0,924000	0,676422	4,999847
0,925000	0,678253	4,999847
0,926000	0,684662	4,999847
0,927000	0,672150	4,999847
0,928000	0,696564	4,999847
0,929000	0,667114	4,168549
0,930000	0,707092	3,548279
0,931000	0,659332	4,566650
0,932000	0,699005	4,042511
0,933000	0,631256	4,999847
0,934000	0,712738	4,999847
0,935000	0,655518	4,999847
0,936000	0,703278	4,999847
0,937000	0,669250	4,999847
0,938000	0,693512	4,999847
0,939000	0,682831	4,435425
0,940000	0,685272	3,493958
0,941000	0,699768	3,531799
0,942000	0,679626	4,999847
0,943000	0,711975	4,999847
0,944000	0,666504	4,999847
0,945000	0,719147	4,999847
0,946000	0,661469	4,999847
0,947000	0,730743	4,999847
0,948000	0,652161	4,999847
0,949000	0,730286	4,999847
0,950000	0,672607	4,005280
0,951000	0,714417	4,179077
0,952000	0,683289	4,288635
0,953000	0,704193	4,999847
0,954000	0,699921	4,999847
0,955000	0,695038	4,999847
0,956000	0,714417	4,999847
0,957000	0,687561	4,999847
0,958000	0,728302	4,829102
0,959000	0,684052	3,115692
0,960000	0,741272	3,605499
0,961000	0,671844	3,933105
0,962000	0,749054	4,784088
0,963000	0,674896	4,999847
0,964000	0,746765	4,999847
0,965000	0,691986	4,999847
0,966000	0,730896	4,999847
0,967000	0,706940	4,999847
0,968000	0,718689	4,999847
0,969000	0,718689	3,787842
0,970000	0,707245	3,257446
0,971000	0,732727	4,833984
0,972000	0,693817	3,084869
0,973000	0,742493	4,999847
0,974000	0,676880	4,999847
0,975000	0,751801	4,999847
0,976000	0,673981	4,999847
0,977000	0,766754	4,999847
0,978000	0,691071	4,908600
0,979000	0,761871	3,406982
0,980000	0,709229	4,414062
0,981000	0,745087	4,640961
0,982000	0,719452	4,999847
0,983000	0,729218	4,999847
0,984000	0,736542	4,999847
0,985000	0,710144	4,999847
0,986000	0,747833	4,999847
0,987000	0,698395	4,999847
0,988000	0,761261	4,926300
0,989000	0,683289	3,989258
0,990000	0,770569	3,234711
0,991000	0,681610	4,827728
0,992000	0,785828	4,375000
0,993000	0,704956	4,926147
0,994000	0,768890	4,999847
0,995000	0,718689	4,999847
0,996000	0,749664	4,999847
0,997000	0,737000	4,999847
0,998000	0,720825	4,580688
0,999000	0,741425	3,291626

