LabVIEW Measurement	
Writer_Version	2
Reader_Version	2
Separator	Tab
Decimal_Separator	,
Multi_Headings	Yes
X_Columns	One
Time_Pref	Absolute
Operator	d.nicolai
Date	2023/11/09
Time	16:04:05,6565121999996605588
***End_of_Header***	
	
Channels	2		
Samples	1000	1000	
Date	2023/11/09	2023/11/09	
Time	16:04:52,4475125999997687776	16:04:52,4475125999997687776	
Y_Unit_Label	Volts	Volts	
X_Dimension	Time	Time	
X0	0,0000000000000000E+0	0,0000000000000000E+0	
Delta_X	0,001000	0,001000	
***End_of_Header***			
X_Value	powebox	triggerbox	Comment
0,000000	0,458679	0,888519
0,001000	0,464478	4,506226
0,002000	0,453949	4,999847
0,003000	0,472412	4,999847
0,004000	0,449677	4,999847
0,005000	0,480194	4,999847
0,006000	0,445099	4,999847
0,007000	0,486908	4,999847
0,008000	0,441132	4,999847
0,009000	0,488129	3,502502
0,010000	0,449524	2,250977
0,011000	0,481110	4,191437
0,012000	0,460205	4,999847
0,013000	0,474091	4,999847
0,014000	0,469818	4,999847
0,015000	0,467682	4,999847
0,016000	0,478668	4,999847
0,017000	0,462189	4,999847
0,018000	0,487213	4,999847
0,019000	0,456848	4,465942
0,020000	0,496063	4,913025
0,021000	0,451813	4,120789
0,022000	0,503998	4,038086
0,023000	0,449371	4,961548
0,024000	0,500183	4,999847
0,025000	0,462036	4,999847
0,026000	0,490570	4,999847
0,027000	0,473022	4,999847
0,028000	0,483398	4,428253
0,029000	0,483856	3,833771
0,030000	0,476379	2,518616
0,031000	0,494232	4,999847
0,032000	0,470123	4,999847
0,033000	0,503693	4,999847
0,034000	0,463562	4,999847
0,035000	0,512695	4,999847
0,036000	0,458374	4,999847
0,037000	0,520935	4,999847
0,038000	0,462036	4,999847
0,039000	0,510712	4,370575
0,040000	0,475464	4,273071
0,041000	0,500946	4,160461
0,042000	0,487671	4,999847
0,043000	0,492554	4,999847
0,044000	0,499268	4,999847
0,045000	0,484772	4,999847
0,046000	0,510254	4,999847
0,047000	0,477295	4,999847
0,048000	0,520630	4,633942
0,049000	0,470581	3,731537
0,050000	0,530090	2,677155
0,051000	0,464935	4,400330
0,052000	0,532532	4,999847
0,053000	0,475159	4,999847
0,054000	0,521240	4,999847
0,055000	0,489655	4,999847
0,056000	0,510864	4,999847
0,057000	0,503387	4,999847
0,058000	0,501404	4,999847
0,059000	0,515900	4,161224
0,060000	0,469818	4,075470
0,061000	0,508728	3,782196
0,062000	0,476837	3,814545
0,063000	0,534821	4,999847
0,064000	0,476227	4,999847
0,065000	0,548248	4,999847
0,066000	0,472870	4,999847
0,067000	0,543518	4,956055
0,068000	0,489655	4,867554
0,069000	0,531158	3,402557
0,070000	0,504761	4,384918
0,071000	0,520172	4,554291
0,072000	0,519257	4,999847
0,073000	0,509796	4,999847
0,074000	0,532379	4,999847
0,075000	0,500336	4,999847
0,076000	0,545044	4,999847
0,077000	0,492401	4,999847
0,078000	0,556946	4,999847
0,079000	0,485077	3,857422
0,080000	0,568085	2,902069
0,081000	0,487976	3,300018
0,082000	0,554352	4,925079
0,083000	0,505219	4,999847
0,084000	0,541229	4,999847
0,085000	0,521698	4,999847
0,086000	0,529785	4,999847
0,087000	0,536804	4,999847
0,088000	0,518951	4,152985
0,089000	0,550842	3,124237
0,090000	0,509033	3,921356
0,091000	0,563965	4,460907
0,092000	0,500641	4,999847
0,093000	0,575714	4,999847
0,094000	0,492859	4,999847
0,095000	0,580292	4,999847
0,096000	0,504150	4,999847
0,097000	0,565338	4,999847
0,098000	0,522766	4,999847
0,099000	0,551300	3,681030
0,100000	0,539551	3,385162
0,101000	0,538788	4,339905
0,102000	0,555420	4,538727
0,103000	0,527649	4,999847
0,104000	0,569305	4,999847
0,105000	0,517426	4,999847
0,106000	0,583191	4,999847
0,107000	0,508423	4,999847
0,108000	0,595856	4,429474
0,109000	0,501251	3,198700
0,110000	0,590668	3,098907
0,111000	0,521393	4,999847
0,112000	0,575104	4,999847
0,113000	0,540314	4,999847
0,114000	0,561066	4,999847
0,115000	0,558319	4,999847
0,116000	0,548248	4,999847
0,117000	0,574646	4,999847
0,118000	0,537262	4,999847
0,119000	0,589447	4,437408
0,120000	0,527191	2,850952
0,121000	0,603790	4,298706
0,122000	0,517578	4,999847
0,123000	0,616150	4,999847
0,124000	0,519104	4,999847
0,125000	0,601807	4,999847
0,126000	0,540619	4,999847
0,127000	0,586090	4,999847
0,128000	0,560150	4,772949
0,129000	0,571442	2,920380
0,130000	0,578461	3,081970
0,131000	0,559387	4,333954
0,132000	0,595551	4,626007
0,133000	0,534668	4,999847
0,134000	0,604858	4,999847
0,135000	0,534363	4,999847
0,136000	0,623932	4,999847
0,137000	0,527344	4,999847
0,138000	0,631714	4,670868
0,139000	0,540314	3,314514
0,140000	0,613403	3,594513
0,141000	0,561829	4,249725
0,142000	0,597382	4,999847
0,143000	0,581818	4,999847
0,144000	0,583191	4,999847
0,145000	0,600433	4,999847
0,146000	0,570374	4,999847
0,147000	0,617523	4,999847
0,148000	0,559235	3,987274
0,149000	0,633087	3,506927
0,150000	0,548706	3,346100
0,151000	0,647583	4,309998
0,152000	0,539703	4,999847
0,153000	0,643463	4,999847
0,154000	0,562439	4,999847
0,155000	0,625916	4,999847
0,156000	0,584717	4,999847
0,157000	0,610352	4,999847
0,158000	0,605164	4,999847
0,159000	0,596161	3,457031
0,160000	0,624084	3,608093
0,161000	0,583344	2,990112
0,162000	0,635834	4,455719
0,163000	0,535278	4,999847
0,164000	0,637665	4,999847
0,165000	0,554199	4,999847
0,166000	0,667877	4,999847
0,167000	0,561371	4,999847
0,168000	0,656281	4,817505
0,169000	0,586548	3,137054
0,170000	0,639496	4,388733
0,171000	0,609436	4,467468
0,172000	0,623932	4,999847
0,173000	0,629730	4,999847
0,174000	0,610504	4,999847
0,175000	0,648804	4,999847
0,176000	0,598450	4,999847
0,177000	0,665588	4,999847
0,178000	0,587921	4,651947
0,179000	0,681610	4,314423
0,180000	0,578461	4,073029
0,181000	0,690765	4,042358
0,182000	0,589142	4,303284
0,183000	0,671539	4,999847
0,184000	0,613556	4,999847
0,185000	0,654602	4,999847
0,186000	0,635834	4,999847
0,187000	0,639648	4,999847
0,188000	0,655823	4,266510
0,189000	0,625763	3,249512
0,190000	0,674438	1,673889
0,191000	0,614166	3,939209
0,192000	0,691528	4,999847
0,193000	0,604095	4,999847
0,194000	0,706787	4,999847
0,195000	0,594788	4,999847
0,196000	0,705261	4,999847
0,197000	0,617371	4,999847
0,198000	0,686798	4,842682
0,199000	0,641174	4,624481
0,200000	0,670319	4,047394
0,201000	0,663147	3,276672
0,202000	0,655212	3,993683
0,203000	0,682373	4,999847
0,204000	0,643005	4,999847
0,205000	0,700684	4,999847
0,206000	0,631866	4,999847
0,207000	0,717773	4,999847
0,208000	0,621643	3,901062
0,209000	0,732574	2,965393
0,210000	0,619965	3,967590
0,211000	0,720062	4,999847
0,212000	0,645599	4,999847
0,213000	0,702515	4,999847
0,214000	0,668945	4,999847
0,215000	0,686340	4,999847
0,216000	0,690002	4,999847
0,217000	0,672455	4,999847
0,218000	0,710144	4,999847
0,219000	0,660553	4,120636
0,220000	0,728302	2,729492
0,221000	0,649567	4,999847
0,222000	0,744019	4,999847
0,223000	0,639954	4,728546
0,224000	0,755768	4,999847
0,225000	0,649109	4,999847
0,226000	0,735779	4,999847
0,227000	0,674591	4,999847
0,228000	0,718536	4,237671
0,229000	0,697174	3,644409
0,230000	0,703278	3,443146
0,231000	0,717926	4,475555
0,232000	0,689545	4,999847
0,233000	0,737000	4,999847
0,234000	0,677338	4,999847
0,235000	0,752106	4,999847
0,236000	0,664520	4,999847
0,237000	0,769043	4,999847
0,238000	0,657654	4,939423
0,239000	0,770264	4,294434
0,240000	0,678253	3,889923
0,241000	0,751953	4,061432
0,242000	0,702820	4,999847
0,243000	0,734558	4,999847
0,244000	0,724792	4,999847
0,245000	0,720367	4,999847
0,246000	0,745544	4,999847
0,247000	0,706940	4,999847
0,248000	0,748901	4,436798
0,249000	0,677032	3,346863
0,250000	0,762177	3,029175
0,251000	0,670013	4,331970
0,252000	0,777893	4,999847
0,253000	0,667114	4,999847
0,254000	0,768127	4,999847
0,255000	0,691071	4,999847
0,256000	0,749664	4,999847
0,257000	0,713806	4,999847
0,258000	0,733643	4,369507
0,259000	0,735321	4,221344
0,260000	0,719757	3,965759
0,261000	0,754700	4,099884
0,262000	0,707092	4,999847
0,263000	0,771637	4,999847
0,264000	0,695801	4,999847
0,265000	0,761108	4,999847
0,266000	0,662537	4,999847
0,267000	0,789642	4,999847
0,268000	0,688019	4,999847
0,269000	0,778656	3,983459
0,270000	0,716400	2,324371
0,271000	0,762939	4,869232
0,272000	0,739288	4,999847
0,273000	0,747681	4,999847
0,274000	0,759125	4,999847
0,275000	0,733948	4,999847
0,276000	0,778503	4,999847
0,277000	0,722198	4,999847
0,278000	0,795746	4,999847
0,279000	0,711670	4,456482
0,280000	0,811462	3,296967
0,281000	0,702667	3,751984
0,282000	0,814972	4,999847
0,283000	0,719604	4,999847
0,284000	0,795593	4,999847
0,285000	0,743256	4,999847
0,286000	0,778351	4,999847
0,287000	0,765228	4,999847
0,288000	0,763550	4,999847
0,289000	0,785065	3,305817
0,290000	0,750427	3,786469
0,291000	0,802765	4,355621
0,292000	0,738525	4,999847
0,293000	0,820007	4,999847
0,294000	0,727692	4,999847
0,295000	0,835266	4,999847
0,296000	0,719757	4,999847
0,297000	0,827789	4,999847
0,298000	0,745392	4,999847
0,299000	0,810242	4,333038
0,300000	0,768585	3,053741
0,301000	0,794373	4,190979
0,302000	0,790100	4,910583
0,303000	0,779724	4,256744
0,304000	0,809631	4,999847
0,305000	0,767212	4,999847
0,306000	0,828705	4,999847
0,307000	0,755920	4,899902
0,308000	0,746765	4,156799
0,309000	0,754089	3,350677
0,310000	0,757904	2,918549
0,311000	0,793610	4,994507
0,312000	0,827484	4,999847
0,313000	0,798645	4,999847
0,314000	0,803070	4,999847
0,315000	0,814972	4,999847
0,316000	0,787201	4,999847
0,317000	0,833435	4,999847
0,318000	0,773468	4,999847
0,319000	0,851440	4,560394
0,320000	0,761566	2,823029
0,321000	0,868225	3,849182
0,322000	0,750427	4,379883
0,323000	0,865173	4,892578
0,324000	0,773773	4,999847
0,325000	0,846710	4,999847
0,326000	0,796967	4,999847
0,327000	0,830231	4,999847
0,328000	0,817719	4,999847
0,329000	0,814362	3,816681
0,330000	0,838776	3,403625
0,331000	0,799561	4,162903
0,332000	0,857544	4,999847
0,333000	0,785980	4,999847
0,334000	0,874939	4,999847
0,335000	0,773926	4,999847
0,336000	0,888977	4,999847
0,337000	0,771332	4,999847
0,338000	0,872345	4,992065
0,339000	0,795593	3,819122
0,340000	0,853577	3,028259
0,341000	0,817719	4,867706
0,342000	0,836792	4,174957
0,343000	0,839081	4,999847
0,344000	0,820465	4,999847
0,345000	0,858307	4,999847
0,346000	0,805969	4,999847
0,347000	0,877228	4,999847
0,348000	0,792236	4,999847
0,349000	0,871277	3,340759
0,350000	0,762329	3,354187
0,351000	0,874329	4,626923
0,352000	0,771179	4,999847
0,353000	0,852509	4,999847
0,354000	0,742798	4,999847
0,355000	0,690460	4,999847
0,356000	0,666809	4,999847
0,357000	0,655365	4,999847
0,358000	0,651245	4,999847
0,359000	0,648651	3,571320
0,360000	0,648041	4,082642
0,361000	0,648041	4,051971
0,362000	0,649872	3,848877
0,363000	0,649414	4,999847
0,364000	0,649261	4,999847
0,365000	0,648956	4,999847
0,366000	0,648651	4,999847
0,367000	0,639038	4,999847
0,368000	0,627747	4,638672
0,369000	0,637665	2,560730
0,370000	0,643616	3,023529
0,371000	0,646515	4,994354
0,372000	0,647888	4,999847
0,373000	0,648499	4,999847
0,374000	0,648346	4,999847
0,375000	0,531158	4,999847
0,376000	0,452423	4,999847
0,377000	0,433197	4,999847
0,378000	0,405273	4,999847
0,379000	0,414886	3,739777
0,380000	0,397949	3,554840
0,381000	0,408478	4,999847
0,382000	0,399933	4,768829
0,383000	0,405884	4,999847
0,384000	0,403290	4,999847
0,385000	0,403900	4,999847
0,386000	0,406799	4,999847
0,387000	0,402222	4,999847
0,388000	0,410767	4,999847
0,389000	0,400848	3,183441
0,390000	0,415039	3,236389
0,391000	0,399628	4,613190
0,392000	0,418854	4,999847
0,393000	0,398102	4,999847
0,394000	0,419922	4,999847
0,395000	0,403290	4,999847
0,396000	0,417938	4,999847
0,397000	0,409393	4,999847
0,398000	0,416260	4,773407
0,399000	0,415344	4,105530
0,400000	0,413818	4,217529
0,401000	0,420074	3,807526
0,402000	0,411530	4,298248
0,403000	0,424957	4,999847
0,404000	0,409546	4,999847
0,405000	0,430298	4,999847
0,406000	0,408020	4,999847
0,407000	0,436554	4,999847
0,408000	0,411377	4,361572
0,409000	0,450134	2,922668
0,410000	0,430603	4,999847
0,411000	0,445557	3,324890
0,412000	0,437164	4,825897
0,413000	0,442352	4,999847
0,414000	0,443726	4,999847
0,415000	0,438843	4,999847
0,416000	0,450134	4,999847
0,417000	0,435944	4,999847
0,418000	0,456085	4,999847
0,419000	0,433044	3,510895
0,420000	0,462189	4,665680
0,421000	0,430756	3,771057
0,422000	0,466309	4,663544
0,423000	0,433502	4,999847
0,424000	0,461273	4,999847
0,425000	0,441742	4,999847
0,426000	0,456543	4,999847
0,427000	0,449829	4,999847
0,428000	0,451660	4,299011
0,429000	0,457001	2,642365
0,430000	0,447845	2,557983
0,431000	0,464172	3,853607
0,432000	0,443878	4,999847
0,433000	0,470734	4,999847
0,434000	0,440063	4,999847
0,435000	0,477753	4,999847
0,436000	0,436554	4,999847
0,437000	0,478973	4,999847
0,438000	0,444489	4,335480
0,439000	0,472565	3,537598
0,440000	0,453949	4,846954
0,441000	0,466309	4,015503
0,442000	0,463104	3,886719
0,443000	0,460663	4,999847
0,444000	0,467072	4,999847
0,445000	0,451965	4,999847
0,446000	0,471954	4,999847
0,447000	0,441589	4,999847
0,448000	0,482635	4,209442
0,449000	0,444641	3,154755
0,450000	0,493011	3,968506
0,451000	0,444489	3,888397
0,452000	0,490265	4,999847
0,453000	0,455933	4,999847
0,454000	0,482178	4,999847
0,455000	0,466614	4,999847
0,456000	0,475922	4,999847
0,457000	0,476379	4,999847
0,458000	0,469360	4,269104
0,459000	0,486145	4,061584
0,460000	0,463104	4,039154
0,461000	0,494995	4,389343
0,462000	0,457916	4,999847
0,463000	0,503235	4,999847
0,464000	0,453033	4,999847
0,465000	0,510559	4,999847
0,466000	0,456390	4,999847
0,467000	0,501404	4,999847
0,468000	0,468750	4,999847
0,469000	0,492096	3,840942
0,470000	0,449829	3,359070
0,471000	0,468292	4,541016
0,472000	0,483704	4,999847
0,473000	0,473633	4,999847
0,474000	0,500031	4,999847
0,475000	0,470123	4,999847
0,476000	0,510712	4,999847
0,477000	0,464325	4,999847
0,478000	0,520325	4,999847
0,479000	0,459137	4,275665
0,480000	0,522614	4,071808
0,481000	0,469055	3,403168
0,482000	0,511322	4,999847
0,483000	0,482483	4,760437
0,484000	0,501862	4,999847
0,485000	0,495148	4,999847
0,486000	0,493317	4,999847
0,487000	0,507660	4,999847
0,488000	0,485840	4,102173
0,489000	0,518188	3,542938
0,490000	0,478363	4,747620
0,491000	0,528717	3,880005
0,492000	0,471497	4,999847
0,493000	0,538177	4,999847
0,494000	0,467834	4,999847
0,495000	0,533752	4,999847
0,496000	0,483551	4,999847
0,497000	0,507660	4,999847
0,498000	0,491486	4,392090
0,499000	0,509033	3,697662
0,500000	0,510406	3,236847
0,501000	0,501709	3,578186
0,502000	0,523987	4,999847
0,503000	0,493622	4,999847
0,504000	0,536041	4,999847
0,505000	0,485687	4,999847
0,506000	0,547180	4,999847
0,507000	0,478973	4,999847
0,508000	0,557251	4,999847
0,509000	0,481720	3,930817
0,510000	0,544281	2,468872
0,511000	0,498657	4,874573
0,512000	0,531921	4,999847
0,513000	0,513763	4,999847
0,514000	0,520782	4,999847
0,515000	0,528564	4,999847
0,516000	0,510864	4,999847
0,517000	0,541840	4,999847
0,518000	0,501862	4,999847
0,519000	0,554504	4,349365
0,520000	0,493622	4,050293
0,521000	0,565948	2,666321
0,522000	0,485992	4,999847
0,523000	0,569305	4,999847
0,524000	0,497284	4,999847
0,525000	0,555267	4,999847
0,526000	0,514832	4,999847
0,527000	0,541534	4,832458
0,528000	0,530853	4,294891
0,529000	0,530090	4,114838
0,530000	0,546570	2,745209
0,531000	0,519409	4,614105
0,532000	0,560455	4,999847
0,533000	0,509949	4,999847
0,534000	0,573425	4,999847
0,535000	0,501251	4,999847
0,536000	0,585022	4,999847
0,537000	0,494537	4,999847
0,538000	0,580292	4,663696
0,539000	0,514221	4,399414
0,540000	0,565338	2,433929
0,541000	0,532532	4,007111
0,542000	0,551300	4,366302
0,543000	0,549164	4,941101
0,544000	0,539398	4,999847
0,545000	0,565186	4,999847
0,546000	0,528564	4,999847
0,547000	0,579529	4,999847
0,548000	0,518036	4,999847
0,549000	0,593109	3,325348
0,550000	0,509491	3,830261
0,551000	0,605469	2,689056
0,552000	0,511475	4,999847
0,553000	0,590668	4,999847
0,554000	0,532227	4,999847
0,555000	0,575562	4,999847
0,556000	0,551453	4,999847
0,557000	0,561371	4,999847
0,558000	0,568848	4,669342
0,559000	0,549011	4,014130
0,560000	0,585175	2,383575
0,561000	0,538177	3,649139
0,562000	0,600128	3,756561
0,563000	0,528107	4,999847
0,564000	0,613708	4,999847
0,565000	0,519562	4,999847
0,566000	0,619507	4,999847
0,567000	0,531311	4,999847
0,568000	0,602264	4,999847
0,569000	0,552368	2,685852
0,570000	0,586700	2,877960
0,571000	0,571594	4,880829
0,572000	0,550995	4,999847
0,573000	0,549011	4,999847
0,574000	0,540924	4,999847
0,575000	0,598145	4,999847
0,576000	0,544891	4,999847
0,577000	0,619965	4,999847
0,578000	0,538483	4,876709
0,579000	0,635529	3,907166
0,580000	0,529938	2,910461
0,581000	0,631866	3,805542
0,582000	0,552063	4,999847
0,583000	0,613861	4,999847
0,584000	0,573730	4,999847
0,585000	0,597992	4,999847
0,586000	0,594025	4,999847
0,587000	0,583954	4,999847
0,588000	0,612030	4,999847
0,589000	0,572052	3,599396
0,590000	0,629272	3,731995
0,591000	0,560913	4,999847
0,592000	0,644379	4,999847
0,593000	0,551300	4,999847
0,594000	0,658417	4,999847
0,595000	0,552216	4,999847
0,596000	0,644073	4,999847
0,597000	0,561218	4,999847
0,598000	0,607147	4,999847
0,599000	0,578461	3,153076
0,600000	0,591125	4,227448
0,601000	0,597382	3,557129
0,602000	0,577850	4,204865
0,603000	0,614624	4,999847
0,604000	0,566101	4,999847
0,605000	0,630951	4,999847
0,606000	0,555573	4,999847
0,607000	0,645294	4,999847
0,608000	0,546417	4,846039
0,609000	0,652924	2,548523
0,610000	0,557709	4,493256
0,611000	0,635223	3,179016
0,612000	0,580597	4,999847
0,613000	0,619049	4,999847
0,614000	0,601959	4,999847
0,615000	0,604553	4,999847
0,616000	0,621033	4,999847
0,617000	0,592194	4,999847
0,618000	0,639343	4,999847
0,619000	0,581207	3,928375
0,620000	0,655670	4,968414
0,621000	0,571747	3,394318
0,622000	0,671082	4,905701
0,623000	0,563507	4,999847
0,624000	0,671234	4,999847
0,625000	0,589294	4,999847
0,626000	0,661621	4,999847
0,627000	0,618134	4,999847
0,628000	0,645905	4,431763
0,629000	0,639954	2,984772
0,630000	0,632019	2,214508
0,631000	0,659790	4,848633
0,632000	0,620117	4,999847
0,633000	0,676727	4,999847
0,634000	0,609131	4,999847
0,635000	0,694275	4,999847
0,636000	0,599365	4,999847
0,637000	0,719299	4,999847
0,638000	0,606689	4,999847
0,639000	0,705872	3,464966
0,640000	0,632477	4,999847
0,641000	0,688019	4,238586
0,642000	0,655518	4,478149
0,643000	0,672150	4,977264
0,644000	0,676727	4,999847
0,645000	0,658264	4,999847
0,646000	0,695953	4,999847
0,647000	0,645752	4,999847
0,648000	0,713654	4,733276
0,649000	0,634766	3,543091
0,650000	0,729980	3,223724
0,651000	0,625763	4,405060
0,652000	0,740509	4,999847
0,653000	0,635834	4,999847
0,654000	0,721436	4,999847
0,655000	0,660706	4,999847
0,656000	0,704193	4,999847
0,657000	0,683594	4,999847
0,658000	0,689087	4,774017
0,659000	0,704346	4,288940
0,660000	0,675659	3,169250
0,661000	0,723419	3,874054
0,662000	0,662994	4,999847
0,663000	0,740356	4,999847
0,664000	0,652924	4,999847
0,665000	0,756989	4,999847
0,666000	0,644073	4,999847
0,667000	0,756378	4,999847
0,668000	0,664673	3,887634
0,669000	0,737000	2,648010
0,670000	0,689087	3,707275
0,671000	0,720673	4,917145
0,672000	0,711670	4,331818
0,673000	0,705566	4,999847
0,674000	0,726929	4,999847
0,675000	0,655060	4,999847
0,676000	0,730438	4,999847
0,677000	0,672455	4,999847
0,678000	0,763397	4,999847
0,679000	0,669098	3,771210
0,680000	0,782318	4,785919
0,681000	0,667114	3,559418
0,682000	0,771179	4,999847
0,683000	0,693665	4,999847
0,684000	0,753479	4,999847
0,685000	0,717773	4,999847
0,686000	0,737152	4,999847
0,687000	0,739288	4,999847
0,688000	0,722809	4,692841
0,689000	0,758972	3,001099
0,690000	0,710144	2,802734
0,691000	0,777130	4,780121
0,692000	0,699158	4,999847
0,693000	0,793762	4,999847
0,694000	0,689392	4,999847
0,695000	0,806427	4,999847
0,696000	0,697021	4,999847
0,697000	0,787048	4,999847
0,698000	0,722351	4,969940
0,699000	0,769501	4,555511
0,700000	0,746155	2,643890
0,701000	0,753937	3,395996
0,702000	0,766449	4,999847
0,703000	0,739594	4,999847
0,704000	0,786285	4,999847
0,705000	0,727539	4,999847
0,706000	0,803680	4,999847
0,707000	0,716858	4,999847
0,708000	0,819702	4,008026
0,709000	0,685425	3,431244
0,710000	0,802917	4,557037
0,711000	0,693054	4,161530
0,712000	0,764923	4,999847
0,713000	0,715637	4,999847
0,714000	0,748901	4,999847
0,715000	0,737610	4,999847
0,716000	0,734253	4,999847
0,717000	0,757446	4,999847
0,718000	0,722046	4,999847
0,719000	0,775299	4,107208
0,720000	0,711060	4,999847
0,721000	0,791626	3,628693
0,722000	0,700836	4,227142
0,723000	0,807037	4,999847
0,724000	0,694885	4,999847
0,725000	0,798950	4,999847
0,726000	0,720367	4,999847
0,727000	0,781250	4,999847
0,728000	0,743256	4,243927
0,729000	0,765381	3,606873
0,730000	0,763855	4,056244
0,731000	0,751648	3,726501
0,732000	0,782471	4,999847
0,733000	0,739136	4,999847
0,734000	0,800323	4,999847
0,735000	0,727844	4,999847
0,736000	0,817719	4,999847
0,737000	0,718536	4,999847
0,738000	0,832825	4,999847
0,739000	0,723114	4,083862
0,740000	0,815277	3,469238
0,741000	0,747681	3,906097
0,742000	0,798798	4,999847
0,743000	0,769196	4,999847
0,744000	0,783081	4,999847
0,745000	0,728607	4,999847
0,746000	0,738525	4,999847
0,747000	0,742950	4,999847
0,748000	0,732269	4,307251
0,749000	0,822296	3,986511
0,750000	0,746307	3,206635
0,751000	0,835724	3,886261
0,752000	0,734100	4,999847
0,753000	0,849152	4,999847
0,754000	0,739441	4,999847
0,755000	0,830994	4,999847
0,756000	0,763855	4,999847
0,757000	0,814514	4,999847
0,758000	0,785065	4,999847
0,759000	0,799255	4,314270
0,760000	0,805206	3,760986
0,761000	0,784454	3,781738
0,762000	0,824585	4,999847
0,763000	0,771179	4,999847
0,764000	0,842743	4,999847
0,765000	0,759430	4,999847
0,766000	0,859528	4,999847
0,767000	0,748444	4,999847
0,768000	0,861053	4,500275
0,769000	0,764313	3,768158
0,770000	0,842133	3,791962
0,771000	0,786896	4,354095
0,772000	0,824890	4,999847
0,773000	0,807495	4,999847
0,774000	0,809174	4,999847
0,775000	0,828400	4,999847
0,776000	0,794220	4,999847
0,777000	0,816956	4,999847
0,778000	0,751801	4,999847
0,779000	0,849152	4,413910
0,780000	0,763245	4,703064
0,781000	0,875092	4,862671
0,782000	0,758514	4,077301
0,783000	0,864410	4,999847
0,784000	0,783081	4,999847
0,785000	0,845184	4,999847
0,786000	0,805359	4,999847
0,787000	0,828400	4,999847
0,788000	0,826569	4,119873
0,789000	0,812836	4,080200
0,790000	0,846863	2,171173
0,791000	0,798187	3,478394
0,792000	0,717163	4,999847
0,793000	0,679779	4,999847
0,794000	0,663147	4,999847
0,795000	0,655518	4,999847
0,796000	0,651855	4,999847
0,797000	0,650024	4,999847
0,798000	0,649261	4,666138
0,799000	0,649109	3,909912
0,800000	0,648804	2,247772
0,801000	0,648346	3,783112
0,802000	0,648193	4,999847
0,803000	0,648346	4,999847
0,804000	0,648041	4,999847
0,805000	0,648499	4,999847
0,806000	0,648041	4,999847
0,807000	0,648041	4,999847
0,808000	0,648193	4,308624
0,809000	0,647736	3,870392
0,810000	0,648041	3,336334
0,811000	0,648346	4,999847
0,812000	0,620880	4,999847
0,813000	0,509796	4,999847
0,814000	0,440674	4,999847
0,815000	0,425873	4,999847
0,816000	0,406952	4,999847
0,817000	0,407257	4,999847
0,818000	0,402679	4,427643
0,819000	0,402527	4,533691
0,820000	0,404510	2,354736
0,821000	0,400238	4,999847
0,822000	0,407257	4,999847
0,823000	0,398407	4,999847
0,824000	0,411072	4,999847
0,825000	0,397186	4,999847
0,826000	0,414581	4,999847
0,827000	0,395813	4,999847
0,828000	0,415802	4,530029
0,829000	0,399780	3,993073
0,830000	0,413513	0,963898
0,831000	0,405273	4,956818
0,832000	0,411224	4,999847
0,833000	0,409546	4,999847
0,834000	0,409241	4,999847
0,835000	0,414581	4,999847
0,836000	0,406799	4,999847
0,837000	0,419159	4,999847
0,838000	0,405121	4,999847
0,839000	0,423889	4,863129
0,840000	0,403137	0,909882
0,841000	0,428162	4,379578
0,842000	0,402527	4,846497
0,843000	0,426483	4,999847
0,844000	0,408936	4,999847
0,845000	0,422974	4,999847
0,846000	0,415039	4,999847
0,847000	0,414429	4,999847
0,848000	0,418396	4,999847
0,849000	0,415344	2,867279
0,850000	0,426178	2,708893
0,851000	0,413971	2,826233
0,852000	0,432129	4,936523
0,853000	0,411224	4,999847
0,854000	0,437622	4,999847
0,855000	0,409241	4,999847
0,856000	0,442047	4,999847
0,857000	0,412292	4,999847
0,858000	0,437775	4,999847
0,859000	0,419617	4,040527
0,860000	0,433960	4,855499
0,861000	0,427246	3,911896
0,862000	0,429535	4,416046
0,863000	0,434265	4,999847
0,864000	0,426178	4,999847
0,865000	0,441284	4,999847
0,866000	0,422516	4,999847
0,867000	0,447845	4,999847
0,868000	0,419617	4,999847
0,869000	0,454407	3,667145
0,870000	0,417023	2,877045
0,871000	0,456543	4,999847
0,872000	0,433350	4,999847
0,873000	0,469513	4,999847
0,874000	0,451355	4,999847
0,875000	0,463409	4,999847
0,876000	0,458832	4,999847
0,877000	0,457458	4,999847
0,878000	0,467377	4,999847
0,879000	0,438690	4,480133
0,880000	0,455475	3,381042
0,881000	0,439758	4,035492
0,882000	0,477905	4,606476
0,883000	0,441895	4,999847
0,884000	0,488739	4,999847
0,885000	0,441132	4,999847
0,886000	0,486450	4,999847
0,887000	0,452728	4,917603
0,888000	0,479126	4,999847
0,889000	0,463409	3,117065
0,890000	0,472412	2,757721
0,891000	0,473175	4,095764
0,892000	0,466614	4,867859
0,893000	0,482635	4,999847
0,894000	0,461121	4,999847
0,895000	0,491486	4,999847
0,896000	0,456085	4,999847
0,897000	0,499268	4,999847
0,898000	0,451202	4,846191
0,899000	0,506744	3,757935
0,900000	0,453644	3,126373
0,901000	0,497742	4,350128
0,902000	0,466003	4,338837
0,903000	0,489502	4,999847
0,904000	0,476990	4,999847
0,905000	0,481415	4,999847
0,906000	0,487518	4,999847
0,907000	0,475006	4,999847
0,908000	0,497742	4,999847
0,909000	0,468292	3,211975
0,910000	0,507202	1,776428
0,911000	0,462646	4,958496
0,912000	0,516052	4,999847
0,913000	0,457001	4,999847
0,914000	0,519104	4,999847
0,915000	0,466309	4,999847
0,916000	0,509186	4,999847
0,917000	0,479889	4,999847
0,918000	0,499725	4,999847
0,919000	0,492249	4,045105
0,920000	0,490417	4,597015
0,921000	0,503998	3,871765
0,922000	0,483551	4,259186
0,923000	0,514679	4,999847
0,924000	0,476074	4,999847
0,925000	0,524445	4,999847
0,926000	0,469666	4,999847
0,927000	0,534058	4,999847
0,928000	0,465088	4,999847
0,929000	0,530243	2,990265
0,930000	0,479889	1,864471
0,931000	0,519104	4,609222
0,932000	0,494385	4,999847
0,933000	0,508881	4,999847
0,934000	0,507965	4,999847
0,935000	0,499268	4,999847
0,936000	0,520325	4,999847
0,937000	0,491333	4,999847
0,938000	0,531921	4,999847
0,939000	0,483704	3,753815
0,940000	0,542755	3,544159
0,941000	0,476379	3,917084
0,942000	0,552826	4,115448
0,943000	0,478363	4,999847
0,944000	0,540924	4,999847
0,945000	0,494843	4,999847
0,946000	0,528870	4,999847
0,947000	0,510712	4,999847
0,948000	0,517731	4,999847
0,949000	0,524445	3,042603
0,950000	0,507965	2,873535
0,951000	0,537262	4,213867
0,952000	0,498657	4,999847
0,953000	0,549622	4,999847
0,954000	0,490875	4,999847
0,955000	0,561066	4,999847
0,956000	0,483398	4,999847
0,957000	0,565796	4,999847
0,958000	0,493622	4,859009
0,959000	0,551605	4,021606
0,960000	0,511169	4,299927
0,961000	0,538635	3,984833
0,962000	0,527039	4,290771
0,963000	0,526733	4,999847
0,964000	0,541534	4,999847
0,965000	0,516205	4,999847
0,966000	0,555878	4,999847
0,967000	0,507050	4,999847
0,968000	0,568542	4,999847
0,969000	0,498505	2,951965
0,970000	0,580292	1,877899
0,971000	0,491333	4,283447
0,972000	0,576630	4,999847
0,973000	0,510101	4,999847
0,974000	0,561829	4,999847
0,975000	0,528717	4,999847
0,976000	0,548859	4,999847
0,977000	0,545197	4,999847
0,978000	0,536194	4,999847
0,979000	0,560913	4,026642
0,980000	0,525360	1,455841
0,981000	0,575104	3,776550
0,982000	0,482178	4,999847
0,983000	0,565491	4,999847
0,984000	0,496826	4,999847
0,985000	0,595856	4,999847
0,986000	0,505829	4,999847
0,987000	0,586090	4,999847
0,988000	0,527344	4,999847
0,989000	0,570679	2,897797
0,990000	0,545349	2,333679
0,991000	0,557404	4,587097
0,992000	0,563202	4,999847
0,993000	0,544128	4,999847
0,994000	0,578766	4,999847
0,995000	0,534363	4,999847
0,996000	0,593719	4,999847
0,997000	0,523376	4,999847
0,998000	0,607758	4,999847
0,999000	0,515747	3,592072

