LabVIEW Measurement	
Writer_Version	2
Reader_Version	2
Separator	Tab
Decimal_Separator	,
Multi_Headings	Yes
X_Columns	One
Time_Pref	Absolute
Operator	d.nicolai
Date	2023/11/09
Time	16:04:05,6565121999996605588
***End_of_Header***	
	
Channels	2		
Samples	1000	1000	
Date	2023/11/09	2023/11/09	
Time	16:04:14,1785125999999080642	16:04:14,1785125999999080642	
Y_Unit_Label	Volts	Volts	
X_Dimension	Time	Time	
X0	0,0000000000000000E+0	0,0000000000000000E+0	
Delta_X	0,001000	0,001000	
***End_of_Header***			
X_Value	powebox	triggerbox	Comment
0,000000	0,807495	0,893097
0,001000	0,731812	4,202423
0,002000	0,814209	4,999847
0,003000	0,742187	4,999847
0,004000	0,817871	4,999847
0,005000	0,768280	4,999847
0,006000	0,808258	4,999847
0,007000	0,783081	4,999847
0,008000	0,786743	4,999847
0,009000	0,790100	4,185944
0,010000	0,771942	1,464844
0,011000	0,801239	4,693451
0,012000	0,751038	4,024353
0,013000	0,768127	4,688873
0,014000	0,700226	4,999847
0,015000	0,777435	4,999847
0,016000	0,693207	4,999847
0,017000	0,788116	4,999847
0,018000	0,706482	4,301910
0,019000	0,765686	3,451691
0,020000	0,720978	1,613922
0,021000	0,752563	4,772644
0,022000	0,740814	4,999847
0,023000	0,733032	4,999847
0,024000	0,751495	4,999847
0,025000	0,723114	4,999847
0,026000	0,768890	4,999847
0,027000	0,718842	4,999847
0,028000	0,787048	4,999847
0,029000	0,704193	4,535065
0,030000	0,798340	4,999847
0,031000	0,677185	3,430481
0,032000	0,773468	4,367065
0,033000	0,712433	4,879456
0,034000	0,781097	4,999847
0,035000	0,743408	4,999847
0,036000	0,765228	4,999847
0,037000	0,758820	4,999847
0,038000	0,742798	4,271545
0,039000	0,770569	3,839722
0,040000	0,733032	3,075714
0,041000	0,788727	4,343414
0,042000	0,725555	4,999847
0,043000	0,806122	4,999847
0,044000	0,717621	4,999847
0,045000	0,821991	4,999847
0,046000	0,728455	4,999847
0,047000	0,819550	4,999847
0,048000	0,744019	4,965668
0,049000	0,798340	4,667969
0,050000	0,763855	2,603760
0,051000	0,783844	4,061890
0,052000	0,782013	3,899994
0,053000	0,768280	4,999847
0,054000	0,799255	4,999847
0,055000	0,763092	4,999847
0,056000	0,819397	4,999847
0,057000	0,751190	4,999847
0,058000	0,834351	4,591675
0,059000	0,738678	4,054260
0,060000	0,845947	3,108063
0,061000	0,757751	3,854828
0,062000	0,849915	4,132996
0,063000	0,780487	4,999847
0,064000	0,834656	4,999847
0,065000	0,799103	4,999847
0,066000	0,813751	4,999847
0,067000	0,815582	4,999847
0,068000	0,796051	4,999847
0,069000	0,829620	3,506622
0,070000	0,780945	2,364044
0,071000	0,844879	4,468079
0,072000	0,769653	3,719635
0,073000	0,859070	4,999847
0,074000	0,764160	4,999847
0,075000	0,864105	4,999847
0,076000	0,781250	4,999847
0,077000	0,852509	4,999847
0,078000	0,745697	4,714966
0,079000	0,738068	3,477325
0,080000	0,734253	3,354492
0,081000	0,731964	4,728088
0,082000	0,838776	4,504242
0,083000	0,755463	4,999847
0,084000	0,860291	4,999847
0,085000	0,773926	4,999847
0,086000	0,868835	4,999847
0,087000	0,790100	4,999847
0,088000	0,859680	4,951172
0,089000	0,809174	4,541626
0,090000	0,841064	2,970428
0,091000	0,827789	4,915466
0,092000	0,820923	4,508820
0,093000	0,843353	4,999847
0,094000	0,799408	4,999847
0,095000	0,855865	4,999847
0,096000	0,786896	4,999847
0,097000	0,866547	4,999847
0,098000	0,774231	4,694672
0,099000	0,873108	2,639313
0,100000	0,791779	2,750702
0,101000	0,872803	3,706207
0,102000	0,811768	4,572144
0,103000	0,866089	4,999847
0,104000	0,830231	4,999847
0,105000	0,849762	4,999847
0,106000	0,849915	4,999847
0,107000	0,823822	4,999847
0,108000	0,859680	4,546204
0,109000	0,813293	4,316864
0,110000	0,869904	3,421326
0,111000	0,791168	3,726959
0,112000	0,873413	4,398651
0,113000	0,791931	4,999847
0,114000	0,876160	4,999847
0,115000	0,812531	4,999847
0,116000	0,873566	4,999847
0,117000	0,831604	4,999847
0,118000	0,867310	4,999847
0,119000	0,848083	3,227234
0,120000	0,850220	3,469086
0,121000	0,862274	4,767303
0,122000	0,825806	3,949280
0,123000	0,869293	4,999847
0,124000	0,805817	4,999847
0,125000	0,711823	4,999847
0,126000	0,668488	4,999847
0,127000	0,648651	4,999847
0,128000	0,639496	4,999847
0,129000	0,635071	4,199066
0,130000	0,633698	4,041595
0,131000	0,632629	3,463745
0,132000	0,632782	3,654785
0,133000	0,626068	4,999847
0,134000	0,608521	4,999847
0,135000	0,619202	4,999847
0,136000	0,627441	4,999847
0,137000	0,630646	4,999847
0,138000	0,631714	4,609833
0,139000	0,632629	3,066406
0,140000	0,634308	3,009796
0,141000	0,634613	4,617767
0,142000	0,634613	4,814148
0,143000	0,633698	4,999847
0,144000	0,633850	4,999847
0,145000	0,634155	4,999847
0,146000	0,621643	4,999847
0,147000	0,616455	4,999847
0,148000	0,615997	4,999847
0,149000	0,614319	3,931122
0,150000	0,613556	3,562164
0,151000	0,611725	4,349976
0,152000	0,611572	4,998474
0,153000	0,610046	4,999847
0,154000	0,615387	4,999847
0,155000	0,614014	4,999847
0,156000	0,613403	4,999847
0,157000	0,612946	4,999847
0,158000	0,612946	4,953613
0,159000	0,611877	3,725739
0,160000	0,610199	3,621979
0,161000	0,611420	4,120941
0,162000	0,610504	4,718018
0,163000	0,611420	4,999847
0,164000	0,608368	4,999847
0,165000	0,613556	4,999847
0,166000	0,612640	4,999847
0,167000	0,616150	4,999847
0,168000	0,617981	4,258118
0,169000	0,618896	4,166412
0,170000	0,614777	4,524689
0,171000	0,614624	3,995209
0,172000	0,616302	4,793396
0,173000	0,614777	4,999847
0,174000	0,614166	4,999847
0,175000	0,610199	4,999847
0,176000	0,613861	4,999847
0,177000	0,613556	4,999847
0,178000	0,617065	4,999847
0,179000	0,614929	3,793182
0,180000	0,618591	3,565063
0,181000	0,617065	4,471283
0,182000	0,619049	4,999847
0,183000	0,619812	4,999847
0,184000	0,622253	4,999847
0,185000	0,624695	4,999847
0,186000	0,627899	4,999847
0,187000	0,630951	4,999847
0,188000	0,626526	4,999847
0,189000	0,628357	4,868011
0,190000	0,623627	3,397217
0,191000	0,623779	3,945312
0,192000	0,622406	4,082642
0,193000	0,626068	4,999847
0,194000	0,621643	4,999847
0,195000	0,622864	4,999847
0,196000	0,621796	4,999847
0,197000	0,619965	4,999847
0,198000	0,617828	4,716797
0,199000	0,619659	3,681488
0,200000	0,623932	1,791077
0,201000	0,624237	4,999847
0,202000	0,626984	4,987488
0,203000	0,626221	4,999847
0,204000	0,628662	4,999847
0,205000	0,624695	4,999847
0,206000	0,625000	4,999847
0,207000	0,625000	4,999847
0,208000	0,625153	4,999847
0,209000	0,623169	4,779816
0,210000	0,626221	4,999847
0,211000	0,627899	3,787231
0,212000	0,630341	4,450378
0,213000	0,630341	4,999847
0,214000	0,632172	4,999847
0,215000	0,633698	4,999847
0,216000	0,629730	4,999847
0,217000	0,634613	4,999847
0,218000	0,634766	4,522858
0,219000	0,643463	3,412781
0,220000	0,642395	1,805267
0,221000	0,646820	4,658508
0,222000	0,641479	4,999847
0,223000	0,644073	4,999847
0,224000	0,647278	4,999847
0,225000	0,644989	4,999847
0,226000	0,642242	4,999847
0,227000	0,643768	4,999847
0,228000	0,642548	4,999847
0,229000	0,637512	4,218597
0,230000	0,642548	2,016754
0,231000	0,640717	4,331665
0,232000	0,643616	4,317169
0,233000	0,636902	4,999847
0,234000	0,639191	4,999847
0,235000	0,630646	4,999847
0,236000	0,602570	4,999847
0,237000	0,612335	4,999847
0,238000	0,627899	4,999847
0,239000	0,627747	3,496399
0,240000	0,638275	1,736908
0,241000	0,636597	4,917145
0,242000	0,643311	4,498291
0,243000	0,648651	4,999847
0,244000	0,644379	4,999847
0,245000	0,642395	4,999847
0,246000	0,635834	4,999847
0,247000	0,644073	4,999847
0,248000	0,634155	4,999847
0,249000	0,637360	3,910980
0,250000	0,626831	4,999847
0,251000	0,624542	3,103180
0,252000	0,626984	3,379669
0,253000	0,635376	4,999847
0,254000	0,632324	4,999847
0,255000	0,633850	4,999847
0,256000	0,638123	4,999847
0,257000	0,640411	4,999847
0,258000	0,640869	4,110565
0,259000	0,638428	3,493347
0,260000	0,650024	4,719391
0,261000	0,646820	3,600159
0,262000	0,654755	4,999847
0,263000	0,644836	4,999847
0,264000	0,652161	4,999847
0,265000	0,637360	4,999847
0,266000	0,645905	4,999847
0,267000	0,637970	4,999847
0,268000	0,641174	4,999847
0,269000	0,637512	4,226379
0,270000	0,638885	2,857361
0,271000	0,638428	4,924164
0,272000	0,640106	4,928436
0,273000	0,644684	4,891205
0,274000	0,642090	4,999847
0,275000	0,648346	4,999847
0,276000	0,641937	4,999847
0,277000	0,651855	4,999847
0,278000	0,639801	4,999847
0,279000	0,651398	3,849030
0,280000	0,638428	2,529602
0,281000	0,650330	4,708710
0,282000	0,643463	4,999847
0,283000	0,646820	4,999847
0,284000	0,643768	4,999847
0,285000	0,643005	4,999847
0,286000	0,641327	4,999847
0,287000	0,641785	4,999847
0,288000	0,646057	4,999847
0,289000	0,640564	4,762878
0,290000	0,653381	2,474670
0,291000	0,642700	4,229431
0,292000	0,655823	3,850861
0,293000	0,645447	4,999847
0,294000	0,662079	4,999847
0,295000	0,645142	4,999847
0,296000	0,655365	4,999847
0,297000	0,648651	4,999847
0,298000	0,650787	4,133759
0,299000	0,649872	2,890625
0,300000	0,649872	3,293457
0,301000	0,649261	4,322357
0,302000	0,641937	4,944458
0,303000	0,644836	4,999847
0,304000	0,615234	4,999847
0,305000	0,624084	4,999847
0,306000	0,603485	4,999847
0,307000	0,624847	4,999847
0,308000	0,608368	4,999847
0,309000	0,630798	4,720917
0,310000	0,621643	3,742676
0,311000	0,634918	3,652954
0,312000	0,633087	3,873901
0,313000	0,644684	4,999847
0,314000	0,648346	4,999847
0,315000	0,649567	4,999847
0,316000	0,657501	4,999847
0,317000	0,651093	4,999847
0,318000	0,661774	4,445496
0,319000	0,650177	2,465515
0,320000	0,670013	4,225311
0,321000	0,651703	3,854218
0,322000	0,672302	4,999847
0,323000	0,653381	4,999847
0,324000	0,670929	4,999847
0,325000	0,657196	4,999847
0,326000	0,666046	4,999847
0,327000	0,661469	4,999847
0,328000	0,664368	4,999847
0,329000	0,669250	3,937225
0,330000	0,671692	3,488617
0,331000	0,683441	3,616791
0,332000	0,674286	4,889221
0,333000	0,694275	4,999847
0,334000	0,678864	4,999847
0,335000	0,699310	4,999847
0,336000	0,670624	4,999847
0,337000	0,699158	4,999847
0,338000	0,656433	4,949341
0,339000	0,653229	2,533722
0,340000	0,662994	3,197327
0,341000	0,678253	4,347076
0,342000	0,676575	4,999847
0,343000	0,677185	4,999847
0,344000	0,682983	4,999847
0,345000	0,679016	4,999847
0,346000	0,700226	4,999847
0,347000	0,691071	4,999847
0,348000	0,708923	4,999847
0,349000	0,680389	3,231659
0,350000	0,700989	3,880157
0,351000	0,673218	3,027191
0,352000	0,707092	4,043732
0,353000	0,684967	4,999847
0,354000	0,698853	4,999847
0,355000	0,684509	4,999847
0,356000	0,691986	4,999847
0,357000	0,689850	4,999847
0,358000	0,690765	4,999847
0,359000	0,699921	3,153381
0,360000	0,690460	3,680573
0,361000	0,706329	4,870300
0,362000	0,687408	4,867401
0,363000	0,713654	4,999847
0,364000	0,685272	4,999847
0,365000	0,716553	4,999847
0,366000	0,683441	4,999847
0,367000	0,713654	4,999847
0,368000	0,692139	4,999847
0,369000	0,716553	3,775330
0,370000	0,705414	3,944244
0,371000	0,707550	2,946472
0,372000	0,705261	4,999847
0,373000	0,700073	4,999847
0,374000	0,710449	4,999847
0,375000	0,689697	4,999847
0,376000	0,711670	4,999847
0,377000	0,689392	4,999847
0,378000	0,720825	3,764038
0,379000	0,686340	3,419189
0,380000	0,727844	3,547668
0,381000	0,692139	4,196625
0,382000	0,719604	4,999847
0,383000	0,693665	4,999847
0,384000	0,711975	4,999847
0,385000	0,702972	4,999847
0,386000	0,706329	4,999847
0,387000	0,713959	4,999847
0,388000	0,707550	4,999847
0,389000	0,723724	4,187622
0,390000	0,708313	2,999268
0,391000	0,731049	3,270569
0,392000	0,693207	4,126740
0,393000	0,733337	4,999847
0,394000	0,696106	4,999847
0,395000	0,742493	4,999847
0,396000	0,706024	4,999847
0,397000	0,736847	4,999847
0,398000	0,711517	4,506073
0,399000	0,726318	3,511200
0,400000	0,718384	3,385162
0,401000	0,717010	3,811035
0,402000	0,726471	4,764252
0,403000	0,715179	4,999847
0,404000	0,735016	4,999847
0,405000	0,707397	4,999847
0,406000	0,741425	4,999847
0,407000	0,699463	4,999847
0,408000	0,747681	4,377441
0,409000	0,700226	3,891754
0,410000	0,752258	3,900452
0,411000	0,712128	3,515930
0,412000	0,745392	3,633270
0,413000	0,722351	4,999847
0,414000	0,733948	4,999847
0,415000	0,730438	4,999847
0,416000	0,725708	4,999847
0,417000	0,742493	4,999847
0,418000	0,725708	4,173584
0,419000	0,754700	3,504486
0,420000	0,723572	3,550873
0,421000	0,773315	4,907074
0,422000	0,713348	4,999847
0,423000	0,770569	4,999847
0,424000	0,710754	4,999847
0,425000	0,763397	4,999847
0,426000	0,719757	4,999847
0,427000	0,753632	4,999847
0,428000	0,732269	4,788666
0,429000	0,748138	4,327393
0,430000	0,752106	3,974457
0,431000	0,749817	3,558197
0,432000	0,766602	4,466705
0,433000	0,745544	4,999847
0,434000	0,776978	4,999847
0,435000	0,735626	4,999847
0,436000	0,784760	4,999847
0,437000	0,725403	4,914551
0,438000	0,794373	3,704529
0,439000	0,752106	3,676605
0,440000	0,807648	2,024536
0,441000	0,724335	4,909973
0,442000	0,775452	4,999847
0,443000	0,763550	4,999847
0,444000	0,779266	4,999847
0,445000	0,772095	4,999847
0,446000	0,764008	4,999847
0,447000	0,782928	4,999847
0,448000	0,750732	4,278564
0,449000	0,790558	4,328461
0,450000	0,745544	3,824463
0,451000	0,803223	3,260651
0,452000	0,748291	4,636993
0,453000	0,817108	4,999847
0,454000	0,762787	4,999847
0,455000	0,822601	4,999847
0,456000	0,774536	4,999847
0,457000	0,802155	4,999847
0,458000	0,782318	4,999847
0,459000	0,796814	3,284454
0,460000	0,775757	3,166351
0,461000	0,811768	4,762421
0,462000	0,829163	4,999847
0,463000	0,819397	4,999847
0,464000	0,848694	4,999847
0,465000	0,803680	4,999847
0,466000	0,855103	4,999847
0,467000	0,805969	4,999847
0,468000	0,861816	4,578857
0,469000	0,813446	4,999847
0,470000	0,864716	4,139252
0,471000	0,841980	3,320160
0,472000	0,867310	4,988556
0,473000	0,853424	4,999847
0,474000	0,861206	4,999847
0,475000	0,857697	4,999847
0,476000	0,851593	4,999847
0,477000	0,862122	4,999847
0,478000	0,832062	4,597015
0,479000	0,865021	3,588715
0,480000	0,785217	3,036346
0,481000	0,860443	4,452362
0,482000	0,818024	4,999847
0,483000	0,871582	4,999847
0,484000	0,825348	4,999847
0,485000	0,868225	4,999847
0,486000	0,835876	4,999847
0,487000	0,867310	4,999847
0,488000	0,855255	4,999847
0,489000	0,859680	4,695740
0,490000	0,863495	4,025421
0,491000	0,831604	3,334351
0,492000	0,864258	4,618530
0,493000	0,814362	4,781799
0,494000	0,868073	4,999847
0,495000	0,809479	4,999847
0,496000	0,873871	4,999847
0,497000	0,816345	4,999847
0,498000	0,872192	4,087830
0,499000	0,825348	3,556213
0,500000	0,872040	2,965393
0,501000	0,853424	4,999847
0,502000	0,867462	4,999847
0,503000	0,864258	4,999847
0,504000	0,849762	4,999847
0,505000	0,866699	4,999847
0,506000	0,818481	4,999847
0,507000	0,867615	4,999847
0,508000	0,808411	4,999847
0,509000	0,873413	4,602051
0,510000	0,804596	3,198700
0,511000	0,875244	4,475098
0,512000	0,822296	4,966888
0,513000	0,872650	4,999847
0,514000	0,829010	4,999847
0,515000	0,868073	4,999847
0,516000	0,786438	4,999847
0,517000	0,761414	4,999847
0,518000	0,748596	4,394836
0,519000	0,822449	3,203735
0,520000	0,841827	3,784332
0,521000	0,868683	4,640656
0,522000	0,812531	4,999847
0,523000	0,870667	4,999847
0,524000	0,798492	4,999847
0,525000	0,875244	4,999847
0,526000	0,846405	4,999847
0,527000	0,878296	4,999847
0,528000	0,855560	4,999847
0,529000	0,876312	3,754272
0,530000	0,860596	3,971710
0,531000	0,873718	3,905029
0,532000	0,870361	3,409576
0,533000	0,865326	4,999847
0,534000	0,872650	4,999847
0,535000	0,850983	4,999847
0,536000	0,875092	4,999847
0,537000	0,832520	4,999847
0,538000	0,876160	4,999847
0,539000	0,826416	3,595734
0,540000	0,879059	4,979858
0,541000	0,837250	4,999847
0,542000	0,878448	4,873810
0,543000	0,841217	4,999847
0,544000	0,876312	4,999847
0,545000	0,870667	4,999847
0,546000	0,873413	4,999847
0,547000	0,873718	4,999847
0,548000	0,861053	4,999847
0,549000	0,875549	4,134216
0,550000	0,841370	4,886932
0,551000	0,876923	4,066467
0,552000	0,823822	3,912201
0,553000	0,878143	4,999847
0,554000	0,820618	4,999847
0,555000	0,879364	4,999847
0,556000	0,837250	4,999847
0,557000	0,876465	4,999847
0,558000	0,868683	4,824524
0,559000	0,874329	3,012848
0,560000	0,873108	1,811981
0,561000	0,869904	4,989929
0,562000	0,761261	4,999847
0,563000	0,700378	4,999847
0,564000	0,670166	4,999847
0,565000	0,661011	4,999847
0,566000	0,653534	4,999847
0,567000	0,654297	4,999847
0,568000	0,655518	4,999847
0,569000	0,655060	3,394623
0,570000	0,657501	4,761047
0,571000	0,660400	3,899078
0,572000	0,657959	3,843689
0,573000	0,654755	4,999847
0,574000	0,653839	4,999847
0,575000	0,647125	4,999847
0,576000	0,647125	4,999847
0,577000	0,646057	4,999847
0,578000	0,648956	4,555206
0,579000	0,647736	2,985992
0,580000	0,647888	1,709595
0,581000	0,643463	4,347839
0,582000	0,642242	4,999847
0,583000	0,625763	4,999847
0,584000	0,616608	4,999847
0,585000	0,615082	4,999847
0,586000	0,614166	4,999847
0,587000	0,614014	4,999847
0,588000	0,609589	4,999847
0,589000	0,617218	4,041443
0,590000	0,617676	4,999847
0,591000	0,617218	3,331909
0,592000	0,618591	4,518433
0,593000	0,621796	4,999847
0,594000	0,625916	4,999847
0,595000	0,624847	4,999847
0,596000	0,627594	4,999847
0,597000	0,628662	4,999847
0,598000	0,628662	4,999847
0,599000	0,627136	2,872314
0,600000	0,629425	3,443756
0,601000	0,630035	4,999847
0,602000	0,631256	4,999847
0,603000	0,635071	4,999847
0,604000	0,637360	4,999847
0,605000	0,637207	4,999847
0,606000	0,638580	4,999847
0,607000	0,638275	4,999847
0,608000	0,635071	4,999847
0,609000	0,630951	4,044647
0,610000	0,632324	4,999847
0,611000	0,637817	3,908386
0,612000	0,646667	4,663696
0,613000	0,651093	4,999847
0,614000	0,626984	4,999847
0,615000	0,630035	4,999847
0,616000	0,628052	4,999847
0,617000	0,626984	4,999847
0,618000	0,625305	4,330597
0,619000	0,626221	3,209534
0,620000	0,626526	2,600098
0,621000	0,625916	4,579163
0,622000	0,627594	4,999847
0,623000	0,628967	4,999847
0,624000	0,629425	4,999847
0,625000	0,630188	4,999847
0,626000	0,634155	4,999847
0,627000	0,632324	4,999847
0,628000	0,634613	4,490814
0,629000	0,631714	4,410553
0,630000	0,633698	2,525787
0,631000	0,631866	4,258270
0,632000	0,635376	4,502411
0,633000	0,636292	4,999847
0,634000	0,638885	4,999847
0,635000	0,638885	4,999847
0,636000	0,639496	4,999847
0,637000	0,639648	4,999847
0,638000	0,639954	4,784546
0,639000	0,641327	2,964325
0,640000	0,642395	3,819275
0,641000	0,645599	4,999847
0,642000	0,640564	4,999847
0,643000	0,644531	4,999847
0,644000	0,637665	4,999847
0,645000	0,630341	4,999847
0,646000	0,598602	4,999847
0,647000	0,618896	4,999847
0,648000	0,630188	4,999847
0,649000	0,634918	3,782196
0,650000	0,633698	4,374084
0,651000	0,633392	4,172363
0,652000	0,633392	4,368134
0,653000	0,630951	4,999847
0,654000	0,631714	4,999847
0,655000	0,628052	4,999847
0,656000	0,634613	4,999847
0,657000	0,629272	4,999847
0,658000	0,629425	4,275513
0,659000	0,622864	3,598480
0,660000	0,630951	1,982727
0,661000	0,627441	4,999847
0,662000	0,628052	4,999847
0,663000	0,629883	4,999847
0,664000	0,633392	4,999847
0,665000	0,634155	4,999847
0,666000	0,632477	4,999847
0,667000	0,634460	4,999847
0,668000	0,630493	4,999847
0,669000	0,632172	3,614502
0,670000	0,625305	4,595032
0,671000	0,625458	4,059753
0,672000	0,615845	4,332123
0,673000	0,626068	4,970856
0,674000	0,624084	4,999847
0,675000	0,631561	4,999847
0,676000	0,630493	4,999847
0,677000	0,631256	4,877930
0,678000	0,633545	3,855896
0,679000	0,637512	3,963776
0,680000	0,635223	2,033386
0,681000	0,628510	4,999847
0,682000	0,634003	4,999847
0,683000	0,635223	4,999847
0,684000	0,642242	4,999847
0,685000	0,636444	4,999847
0,686000	0,644836	4,999847
0,687000	0,634155	4,999847
0,688000	0,644531	4,999847
0,689000	0,638580	3,598785
0,690000	0,644073	4,999847
0,691000	0,643158	3,913879
0,692000	0,645294	4,910126
0,693000	0,648804	4,999847
0,694000	0,648499	4,999847
0,695000	0,651245	4,999847
0,696000	0,643311	4,999847
0,697000	0,648041	4,967041
0,698000	0,648193	4,181671
0,699000	0,665131	3,087616
0,700000	0,654449	1,446381
0,701000	0,665283	4,999847
0,702000	0,651703	4,999847
0,703000	0,658569	4,999847
0,704000	0,643311	4,999847
0,705000	0,646515	4,999847
0,706000	0,647736	4,999847
0,707000	0,649109	4,999847
0,708000	0,645905	4,999847
0,709000	0,648346	3,727722
0,710000	0,652771	4,448395
0,711000	0,639648	3,441315
0,712000	0,637207	4,578400
0,713000	0,628052	4,760284
0,714000	0,644379	4,999847
0,715000	0,635834	4,999847
0,716000	0,655365	4,999847
0,717000	0,646973	4,999847
0,718000	0,652771	4,999847
0,719000	0,641937	3,543396
0,720000	0,651093	1,781921
0,721000	0,655060	4,999847
0,722000	0,657043	4,999847
0,723000	0,658875	4,999847
0,724000	0,655365	4,999847
0,725000	0,655975	4,999847
0,726000	0,643311	4,999847
0,727000	0,657043	4,999847
0,728000	0,649567	4,962616
0,729000	0,668182	4,016418
0,730000	0,649872	4,024200
0,731000	0,666351	4,821167
0,732000	0,653687	4,769897
0,733000	0,651703	4,999847
0,734000	0,644836	4,999847
0,735000	0,655060	4,999847
0,736000	0,655060	4,999847
0,737000	0,650177	4,843597
0,738000	0,657501	4,318085
0,739000	0,641174	2,958221
0,740000	0,648804	3,309021
0,741000	0,624847	4,999847
0,742000	0,643311	4,999847
0,743000	0,637207	4,999847
0,744000	0,660095	4,999847
0,745000	0,641785	4,999847
0,746000	0,654449	4,999847
0,747000	0,641174	4,999847
0,748000	0,604095	4,812469
0,749000	0,594635	3,653717
0,750000	0,607147	2,784424
0,751000	0,635834	4,638824
0,752000	0,648193	4,543915
0,753000	0,662384	4,999847
0,754000	0,655518	4,999847
0,755000	0,670776	4,999847
0,756000	0,659637	4,999847
0,757000	0,676270	4,940491
0,758000	0,650177	4,999847
0,759000	0,650177	1,977692
0,760000	0,628967	2,253876
0,761000	0,659943	4,578094
0,762000	0,657349	4,999847
0,763000	0,673218	4,999847
0,764000	0,673218	4,999847
0,765000	0,678253	4,999847
0,766000	0,681152	4,999847
0,767000	0,671692	4,999847
0,768000	0,670624	4,999847
0,769000	0,653839	3,872681
0,770000	0,676575	4,647827
0,771000	0,659637	3,732605
0,772000	0,683899	4,438019
0,773000	0,658875	4,999847
0,774000	0,685120	4,999847
0,775000	0,663910	4,999847
0,776000	0,681000	4,999847
0,777000	0,663757	4,999847
0,778000	0,668793	4,060059
0,779000	0,641174	2,841644
0,780000	0,576477	3,459320
0,781000	0,583344	4,999847
0,782000	0,619812	4,999847
0,783000	0,657959	4,999847
0,784000	0,650635	4,999847
0,785000	0,676117	4,999847
0,786000	0,654907	4,999847
0,787000	0,683899	4,999847
0,788000	0,659943	4,999847
0,789000	0,688477	3,450775
0,790000	0,669708	4,510498
0,791000	0,689240	4,163055
0,792000	0,681763	3,879852
0,793000	0,693207	4,999847
0,794000	0,696564	4,999847
0,795000	0,696716	4,999847
0,796000	0,704498	4,999847
0,797000	0,695190	4,999847
0,798000	0,713348	4,999847
0,799000	0,694427	2,982635
0,800000	0,721893	3,076935
0,801000	0,700378	4,999847
0,802000	0,731964	4,999847
0,803000	0,696259	4,999847
0,804000	0,729980	4,999847
0,805000	0,709229	4,999847
0,806000	0,733032	4,999847
0,807000	0,715179	4,999847
0,808000	0,714111	4,596252
0,809000	0,716705	3,773499
0,810000	0,727997	4,999847
0,811000	0,734863	3,750916
0,812000	0,715332	4,999847
0,813000	0,731964	4,999847
0,814000	0,713043	4,999847
0,815000	0,735626	4,999847
0,816000	0,698853	4,999847
0,817000	0,734253	4,999847
0,818000	0,707092	4,697571
0,819000	0,736237	2,515411
0,820000	0,711975	4,418793
0,821000	0,726776	4,999847
0,822000	0,715942	4,999847
0,823000	0,718994	4,999847
0,824000	0,724030	4,999847
0,825000	0,712433	4,999847
0,826000	0,725403	4,999847
0,827000	0,707092	4,999847
0,828000	0,736847	4,999847
0,829000	0,702515	3,928833
0,830000	0,738525	3,671722
0,831000	0,720367	4,078064
0,832000	0,760803	4,281311
0,833000	0,734253	4,999847
0,834000	0,763855	4,999847
0,835000	0,737000	4,999847
0,836000	0,747681	4,999847
0,837000	0,740051	4,999847
0,838000	0,748291	4,664001
0,839000	0,746155	2,879333
0,840000	0,733337	2,377319
0,841000	0,745697	4,999847
0,842000	0,720978	4,999847
0,843000	0,747681	4,999847
0,844000	0,711975	4,999847
0,845000	0,752563	4,999847
0,846000	0,713348	4,999847
0,847000	0,757904	4,999847
0,848000	0,722656	4,781342
0,849000	0,749664	3,770142
0,850000	0,705719	3,485107
0,851000	0,710144	3,671570
0,852000	0,719757	4,388275
0,853000	0,721436	4,999847
0,854000	0,737915	4,999847
0,855000	0,730133	4,999847
0,856000	0,755157	4,999847
0,857000	0,726624	4,999847
0,858000	0,762024	4,999847
0,859000	0,718079	2,668762
0,860000	0,770264	3,248901
0,861000	0,728607	4,622192
0,862000	0,776672	4,999847
0,863000	0,737915	4,999847
0,864000	0,772400	4,999847
0,865000	0,749512	4,999847
0,866000	0,760345	4,999847
0,867000	0,757904	4,999847
0,868000	0,765839	4,999847
0,869000	0,776672	3,493652
0,870000	0,767212	3,697968
0,871000	0,786591	3,388672
0,872000	0,768585	4,999847
0,873000	0,800629	4,999847
0,874000	0,765839	4,999847
0,875000	0,813599	4,999847
0,876000	0,765076	4,999847
0,877000	0,835114	4,999847
0,878000	0,782013	3,473816
0,879000	0,810547	2,993317
0,880000	0,784149	4,449615
0,881000	0,804901	4,678650
0,882000	0,796661	4,999847
0,883000	0,782166	4,999847
0,884000	0,799561	4,999847
0,885000	0,769196	4,999847
0,886000	0,806122	4,999847
0,887000	0,752869	4,999847
0,888000	0,814514	4,999847
0,889000	0,762177	3,643951
0,890000	0,831146	3,530121
0,891000	0,763702	3,753204
0,892000	0,827789	4,999847
0,893000	0,797882	4,999847
0,894000	0,845032	4,999847
0,895000	0,821228	4,999847
0,896000	0,845337	4,999847
0,897000	0,835876	4,999847
0,898000	0,841827	3,937683
0,899000	0,849457	2,948303
0,900000	0,821228	3,418274
0,901000	0,851746	4,619751
0,902000	0,794525	4,999847
0,903000	0,854187	4,999847
0,904000	0,807190	4,999847
0,905000	0,862274	4,999847
0,906000	0,813599	4,999847
0,907000	0,803833	4,999847
0,908000	0,786285	4,999847
0,909000	0,844116	3,534851
0,910000	0,831451	3,670502
0,911000	0,856628	4,524384
0,912000	0,854492	4,999847
0,913000	0,846558	4,999847
0,914000	0,860901	4,999847
0,915000	0,834503	4,999847
0,916000	0,865021	4,999847
0,917000	0,827789	4,570312
0,918000	0,870056	3,697662
0,919000	0,832062	2,861786
0,920000	0,871887	4,270782
0,921000	0,842133	4,999847
0,922000	0,868683	4,999847
0,923000	0,842438	4,999847
0,924000	0,865479	4,999847
0,925000	0,858002	4,999847
0,926000	0,859985	4,999847
0,927000	0,865479	4,999847
0,928000	0,840759	4,999847
0,929000	0,867157	3,713684
0,930000	0,819092	4,613037
0,931000	0,869598	3,772736
0,932000	0,830536	4,724274
0,933000	0,874634	4,999847
0,934000	0,844421	4,999847
0,935000	0,874481	4,999847
0,936000	0,853729	4,999847
0,937000	0,869598	4,999847
0,938000	0,852356	4,729919
0,939000	0,864258	3,161774
0,940000	0,863647	3,371887
0,941000	0,846558	4,999847
0,942000	0,867462	4,999847
0,943000	0,833130	4,999847
0,944000	0,871124	4,999847
0,945000	0,825043	4,999847
0,946000	0,875397	4,999847
0,947000	0,838165	4,530334
0,948000	0,876465	4,901886
0,949000	0,852814	3,981781
0,950000	0,875702	3,904724
0,951000	0,861664	3,269806
0,952000	0,795593	4,999847
0,953000	0,719910	4,999847
0,954000	0,744171	4,999847
0,955000	0,754852	4,999847
0,956000	0,760651	4,999847
0,957000	0,790405	4,683685
0,958000	0,875244	4,999847
0,959000	0,872498	3,108521
0,960000	0,876770	4,149933
0,961000	0,874786	4,720459
0,962000	0,872040	4,999847
0,963000	0,874176	4,999847
0,964000	0,868530	4,999847
0,965000	0,876312	4,999847
0,966000	0,857544	4,999847
0,967000	0,877075	4,999847
0,968000	0,833740	4,859619
0,969000	0,879974	3,399658
0,970000	0,854034	4,999847
0,971000	0,881500	4,322357
0,972000	0,866699	4,999847
0,973000	0,880127	4,999847
0,974000	0,871735	4,999847
0,975000	0,880737	4,999847
0,976000	0,879059	4,999847
0,977000	0,878906	4,999847
0,978000	0,882568	3,733063
0,979000	0,875854	2,320557
0,980000	0,883484	4,072266
0,981000	0,865784	4,999847
0,982000	0,883789	4,999847
0,983000	0,867767	4,999847
0,984000	0,886688	4,999847
0,985000	0,880585	4,999847
0,986000	0,886993	4,999847
0,987000	0,882874	4,999847
0,988000	0,884399	4,501190
0,989000	0,881500	3,270111
0,990000	0,879517	4,482422
0,991000	0,881805	4,440460
0,992000	0,869751	4,999847
0,993000	0,883636	4,999847
0,994000	0,877991	4,999847
0,995000	0,884857	4,999847
0,996000	0,878448	4,999847
0,997000	0,885620	4,999847
0,998000	0,880127	4,999847
0,999000	0,886688	2,655945

