LabVIEW Measurement	
Writer_Version	2
Reader_Version	2
Separator	Tab
Decimal_Separator	,
Multi_Headings	Yes
X_Columns	One
Time_Pref	Absolute
Operator	d.nicolai
Date	2023/11/09
Time	16:04:05,6565121999996605588
***End_of_Header***	
	
Channels	2		
Samples	1000	1000	
Date	2023/11/09	2023/11/09	
Time	16:04:16,2895125999998505891	16:04:16,2895125999998505891	
Y_Unit_Label	Volts	Volts	
X_Dimension	Time	Time	
X0	0,0000000000000000E+0	0,0000000000000000E+0	
Delta_X	0,001000	0,001000	
***End_of_Header***			
X_Value	powebox	triggerbox	Comment
0,000000	0,646820	0,982819
0,001000	0,666962	4,773254
0,002000	0,639496	4,073792
0,003000	0,672913	4,999847
0,004000	0,629272	4,999847
0,005000	0,678101	4,999847
0,006000	0,626678	4,999847
0,007000	0,679016	4,999847
0,008000	0,636139	4,999847
0,009000	0,669250	3,314514
0,010000	0,649719	2,633514
0,011000	0,661774	4,999847
0,012000	0,650024	4,999847
0,013000	0,648041	4,999847
0,014000	0,665741	4,999847
0,015000	0,643463	4,999847
0,016000	0,674133	4,999847
0,017000	0,631866	4,999847
0,018000	0,681152	4,981842
0,019000	0,623779	3,142242
0,020000	0,689240	3,252869
0,021000	0,622864	4,022827
0,022000	0,680542	4,197388
0,023000	0,639496	4,999847
0,024000	0,670624	4,999847
0,025000	0,649719	4,999847
0,026000	0,660553	4,999847
0,027000	0,663910	4,999847
0,028000	0,630951	4,999847
0,029000	0,667877	3,721619
0,030000	0,643463	2,921143
0,031000	0,687408	4,761963
0,032000	0,636444	4,999847
0,033000	0,697937	4,999847
0,034000	0,632324	4,999847
0,035000	0,701141	4,999847
0,036000	0,642242	4,999847
0,037000	0,697937	4,999847
0,038000	0,661469	4,999847
0,039000	0,685272	3,735657
0,040000	0,666046	4,645386
0,041000	0,674744	3,469238
0,042000	0,683594	4,123383
0,043000	0,668335	4,999847
0,044000	0,700531	4,999847
0,045000	0,666351	4,999847
0,046000	0,714111	4,999847
0,047000	0,648804	4,999847
0,048000	0,718842	4,186401
0,049000	0,633850	3,650208
0,050000	0,718689	4,169617
0,051000	0,644684	4,450531
0,052000	0,703888	4,999847
0,053000	0,670624	4,999847
0,054000	0,688629	4,999847
0,055000	0,680695	4,999847
0,056000	0,680237	4,999847
0,057000	0,696564	4,999847
0,058000	0,667267	4,923096
0,059000	0,708008	3,721008
0,060000	0,654907	3,648682
0,061000	0,720367	3,590546
0,062000	0,648651	4,188995
0,063000	0,736084	4,815063
0,064000	0,650177	4,999847
0,065000	0,733185	4,999847
0,066000	0,674438	4,999847
0,067000	0,700684	4,999847
0,068000	0,659332	4,696503
0,069000	0,668335	3,460846
0,070000	0,672150	4,480133
0,071000	0,679169	3,276978
0,072000	0,703888	4,569092
0,073000	0,667267	4,999847
0,074000	0,727997	4,999847
0,075000	0,694122	4,999847
0,076000	0,760040	4,999847
0,077000	0,691376	4,999847
0,078000	0,773315	4,388580
0,079000	0,698090	4,613190
0,080000	0,767517	4,296112
0,081000	0,708618	3,201447
0,082000	0,752258	4,307556
0,083000	0,728607	4,999847
0,084000	0,736542	4,999847
0,085000	0,740662	4,999847
0,086000	0,721588	4,999847
0,087000	0,752716	4,999847
0,088000	0,709381	4,413605
0,089000	0,764313	2,990723
0,090000	0,695038	3,245392
0,091000	0,774078	4,142151
0,092000	0,686188	4,746094
0,093000	0,788116	4,999847
0,094000	0,702667	4,999847
0,095000	0,775604	4,999847
0,096000	0,722809	4,999847
0,097000	0,762482	4,999847
0,098000	0,741272	4,761200
0,099000	0,741577	4,509583
0,100000	0,753326	4,644623
0,101000	0,719147	2,813568
0,102000	0,762787	4,393616
0,103000	0,699921	4,999847
0,104000	0,774384	4,999847
0,105000	0,685730	4,999847
0,106000	0,786438	4,999847
0,107000	0,672607	4,999847
0,108000	0,764008	4,362640
0,109000	0,692139	2,755432
0,110000	0,766144	2,809143
0,111000	0,724030	3,827667
0,112000	0,753174	4,776306
0,113000	0,745850	4,999847
0,114000	0,742950	4,999847
0,115000	0,768127	4,999847
0,116000	0,731964	4,999847
0,117000	0,785980	4,999847
0,118000	0,718994	4,999847
0,119000	0,800629	3,575897
0,120000	0,715790	2,951355
0,121000	0,820160	4,213104
0,122000	0,725555	3,474274
0,123000	0,825653	4,999847
0,124000	0,742645	4,999847
0,125000	0,804291	4,999847
0,126000	0,760040	4,999847
0,127000	0,782776	4,999847
0,128000	0,779114	4,756165
0,129000	0,778809	3,675995
0,130000	0,797272	3,303070
0,131000	0,735474	4,599762
0,132000	0,805206	4,937744
0,133000	0,743256	4,999847
0,134000	0,830994	4,999847
0,135000	0,742340	4,999847
0,136000	0,852356	4,999847
0,137000	0,753937	4,999847
0,138000	0,848846	4,999847
0,139000	0,772400	4,151917
0,140000	0,791931	3,187408
0,141000	0,773010	4,743042
0,142000	0,804749	3,718262
0,143000	0,805969	4,999847
0,144000	0,795593	4,999847
0,145000	0,827026	4,999847
0,146000	0,748749	4,999847
0,147000	0,824890	4,999847
0,148000	0,727997	4,963837
0,149000	0,837097	3,805084
0,150000	0,752869	3,041992
0,151000	0,870972	2,542877
0,152000	0,785675	4,999847
0,153000	0,872803	4,999847
0,154000	0,802155	4,999847
0,155000	0,850525	4,999847
0,156000	0,755768	4,999847
0,157000	0,749969	4,999847
0,158000	0,747375	4,590454
0,159000	0,746460	3,915710
0,160000	0,867615	3,399811
0,161000	0,786591	2,376404
0,162000	0,884094	4,600372
0,163000	0,799713	4,999847
0,164000	0,870819	4,999847
0,165000	0,819244	4,999847
0,166000	0,840149	4,999847
0,167000	0,832520	4,999847
0,168000	0,793762	4,999847
0,169000	0,833130	4,413452
0,170000	0,770721	2,584839
0,171000	0,849609	4,213257
0,172000	0,798035	4,867859
0,173000	0,883636	4,999847
0,174000	0,781250	4,999847
0,175000	0,871887	4,999847
0,176000	0,796204	4,999847
0,177000	0,890503	4,999847
0,178000	0,821228	4,999847
0,179000	0,874329	4,265747
0,180000	0,840302	4,999847
0,181000	0,844879	2,390289
0,182000	0,852814	3,556213
0,183000	0,799408	4,999847
0,184000	0,856781	4,999847
0,185000	0,821991	4,999847
0,186000	0,888062	4,999847
0,187000	0,803986	4,999847
0,188000	0,894165	4,395905
0,189000	0,799255	3,804932
0,190000	0,872955	2,936249
0,191000	0,792999	4,628601
0,192000	0,892639	4,999847
0,193000	0,838776	4,999847
0,194000	0,880737	4,999847
0,195000	0,862122	4,999847
0,196000	0,864716	4,999847
0,197000	0,880432	4,999847
0,198000	0,848999	4,999847
0,199000	0,890808	4,434357
0,200000	0,830841	3,635101
0,201000	0,895386	4,604340
0,202000	0,802002	3,499451
0,203000	0,720673	4,999847
0,204000	0,684052	4,999847
0,205000	0,666656	4,999847
0,206000	0,658875	4,999847
0,207000	0,654907	4,999847
0,208000	0,653076	4,445343
0,209000	0,652313	3,815765
0,210000	0,652008	2,213287
0,211000	0,651703	4,695435
0,212000	0,651245	4,999847
0,213000	0,651398	4,999847
0,214000	0,650940	4,999847
0,215000	0,650787	4,999847
0,216000	0,650482	4,999847
0,217000	0,650787	4,999847
0,218000	0,650940	4,655609
0,219000	0,650787	3,952789
0,220000	0,650635	3,304596
0,221000	0,650787	4,589539
0,222000	0,650482	3,981476
0,223000	0,600128	4,999847
0,224000	0,578308	4,999847
0,225000	0,579071	4,999847
0,226000	0,571747	4,999847
0,227000	0,572205	4,999847
0,228000	0,569916	4,999847
0,229000	0,561218	3,342590
0,230000	0,483398	3,882599
0,231000	0,446472	4,999847
0,232000	0,416260	4,999847
0,233000	0,419617	4,999847
0,234000	0,401001	4,999847
0,235000	0,416412	4,999847
0,236000	0,396729	4,999847
0,237000	0,415039	4,999847
0,238000	0,509949	4,999847
0,239000	0,563660	3,950195
0,240000	0,587463	3,248291
0,241000	0,594635	3,444977
0,242000	0,600891	3,656769
0,243000	0,604248	4,999847
0,244000	0,606689	4,999847
0,245000	0,608215	4,999847
0,246000	0,611420	4,999847
0,247000	0,608521	4,999847
0,248000	0,610657	4,999847
0,249000	0,609283	2,653503
0,250000	0,611267	2,555695
0,251000	0,610962	2,887726
0,252000	0,607605	4,999847
0,253000	0,609741	4,999847
0,254000	0,609436	4,999847
0,255000	0,613556	4,999847
0,256000	0,616455	4,999847
0,257000	0,615387	4,999847
0,258000	0,614166	4,820709
0,259000	0,617523	4,401703
0,260000	0,617218	3,891449
0,261000	0,618896	2,994843
0,262000	0,617218	3,373718
0,263000	0,610046	4,999847
0,264000	0,605316	4,999847
0,265000	0,604553	4,999847
0,266000	0,602570	4,999847
0,267000	0,601044	4,999847
0,268000	0,602722	4,999847
0,269000	0,605927	2,531586
0,270000	0,605011	2,499542
0,271000	0,606689	4,091034
0,272000	0,601959	4,557648
0,273000	0,604095	4,999847
0,274000	0,602875	4,999847
0,275000	0,601044	4,999847
0,276000	0,599670	4,999847
0,277000	0,578156	4,999847
0,278000	0,584412	4,541779
0,279000	0,595398	4,368286
0,280000	0,592957	4,709778
0,281000	0,577698	3,451080
0,282000	0,576630	3,654480
0,283000	0,571747	4,999847
0,284000	0,586243	4,999847
0,285000	0,591125	4,999847
0,286000	0,588989	4,999847
0,287000	0,592499	4,999847
0,288000	0,594330	4,999847
0,289000	0,591278	3,245239
0,290000	0,595856	2,624054
0,291000	0,590973	4,803772
0,292000	0,581818	4,999847
0,293000	0,586853	4,999847
0,294000	0,586853	4,999847
0,295000	0,586243	4,999847
0,296000	0,598450	4,999847
0,297000	0,602875	4,999847
0,298000	0,607605	4,999847
0,299000	0,606689	4,346313
0,300000	0,597687	3,765717
0,301000	0,590973	3,420563
0,302000	0,601807	4,188690
0,303000	0,534973	4,999847
0,304000	0,524139	4,999847
0,305000	0,556183	4,999847
0,306000	0,584717	4,999847
0,307000	0,597687	4,999847
0,308000	0,605164	4,295654
0,309000	0,597382	2,989197
0,310000	0,593719	3,628540
0,311000	0,549316	4,283600
0,312000	0,560760	4,999847
0,313000	0,551605	4,999847
0,314000	0,551453	4,999847
0,315000	0,564270	4,999847
0,316000	0,574036	4,999847
0,317000	0,588684	4,999847
0,318000	0,534363	4,897766
0,319000	0,563965	3,455963
0,320000	0,581818	4,611359
0,321000	0,587769	3,377075
0,322000	0,558014	4,293060
0,323000	0,569458	4,999847
0,324000	0,577850	4,999847
0,325000	0,574951	4,999847
0,326000	0,569458	4,999847
0,327000	0,571442	4,999847
0,328000	0,548401	3,767548
0,329000	0,560150	3,055725
0,330000	0,567627	2,782440
0,331000	0,559387	4,462738
0,332000	0,572052	4,992981
0,333000	0,541229	4,999847
0,334000	0,572968	4,999847
0,335000	0,586395	4,999847
0,336000	0,589447	4,999847
0,337000	0,595703	4,999847
0,338000	0,604248	4,938049
0,339000	0,598145	4,065247
0,340000	0,596771	3,331909
0,341000	0,594330	3,933563
0,342000	0,597382	4,805450
0,343000	0,591431	4,999847
0,344000	0,589142	4,999847
0,345000	0,588226	4,999847
0,346000	0,584564	4,999847
0,347000	0,587311	4,999847
0,348000	0,582123	4,143524
0,349000	0,587311	3,579559
0,350000	0,579224	3,137970
0,351000	0,589752	4,577332
0,352000	0,581818	4,489746
0,353000	0,590515	4,999847
0,354000	0,585327	4,999847
0,355000	0,590363	4,999847
0,356000	0,585327	4,999847
0,357000	0,585785	4,999847
0,358000	0,587769	4,999847
0,359000	0,584564	3,994446
0,360000	0,593109	3,694000
0,361000	0,587616	2,819519
0,362000	0,596313	4,156647
0,363000	0,587006	4,459381
0,364000	0,599823	4,999847
0,365000	0,587006	4,999847
0,366000	0,602264	4,999847
0,367000	0,592804	4,999847
0,368000	0,603790	4,160461
0,369000	0,600891	3,068695
0,370000	0,605621	4,899597
0,371000	0,604858	4,259796
0,372000	0,606079	4,792328
0,373000	0,608826	4,999847
0,374000	0,602570	4,999847
0,375000	0,609589	4,999847
0,376000	0,600739	4,999847
0,377000	0,613556	4,999847
0,378000	0,602112	4,561157
0,379000	0,612946	4,618835
0,380000	0,567932	2,622833
0,381000	0,605164	3,434601
0,382000	0,601807	3,911743
0,383000	0,616608	4,999847
0,384000	0,612793	4,999847
0,385000	0,617218	4,999847
0,386000	0,618286	4,999847
0,387000	0,611267	4,999847
0,388000	0,618439	4,715576
0,389000	0,606995	3,462830
0,390000	0,619965	3,842010
0,391000	0,601959	4,883881
0,392000	0,625000	4,999847
0,393000	0,605621	4,999847
0,394000	0,631866	4,999847
0,395000	0,604553	4,999847
0,396000	0,627441	4,999847
0,397000	0,613708	4,999847
0,398000	0,626526	4,999847
0,399000	0,621643	4,541626
0,400000	0,627136	3,343048
0,401000	0,629883	3,500824
0,402000	0,621185	4,150391
0,403000	0,633087	4,999847
0,404000	0,621490	4,999847
0,405000	0,639648	4,999847
0,406000	0,619049	4,999847
0,407000	0,645599	4,999847
0,408000	0,612793	4,191132
0,409000	0,647125	3,451538
0,410000	0,620575	4,841919
0,411000	0,643311	2,921295
0,412000	0,625763	4,999847
0,413000	0,638275	4,999847
0,414000	0,634308	4,999847
0,415000	0,633545	4,999847
0,416000	0,639343	4,999847
0,417000	0,628967	4,999847
0,418000	0,646820	4,999847
0,419000	0,622864	4,310455
0,420000	0,652008	2,446136
0,421000	0,617371	4,636688
0,422000	0,656738	4,763947
0,423000	0,615387	4,579010
0,424000	0,656891	4,999847
0,425000	0,623932	4,999847
0,426000	0,648651	4,999847
0,427000	0,631104	4,999847
0,428000	0,641022	4,481201
0,429000	0,638580	2,898102
0,430000	0,635529	4,227448
0,431000	0,649261	4,999847
0,432000	0,631561	4,571381
0,433000	0,657959	4,999847
0,434000	0,630341	4,999847
0,435000	0,667725	4,999847
0,436000	0,628662	4,999847
0,437000	0,675659	4,999847
0,438000	0,629272	4,999847
0,439000	0,670776	4,143219
0,440000	0,641022	4,999847
0,441000	0,662994	3,003387
0,442000	0,645599	3,741302
0,443000	0,655060	4,999847
0,444000	0,660400	4,999847
0,445000	0,651093	4,999847
0,446000	0,669861	4,999847
0,447000	0,643005	4,999847
0,448000	0,675812	4,162140
0,449000	0,641174	3,782654
0,450000	0,686035	2,656097
0,451000	0,633240	4,663391
0,452000	0,691071	4,999847
0,453000	0,630951	4,999847
0,454000	0,676880	4,999847
0,455000	0,646362	4,999847
0,456000	0,669098	4,999847
0,457000	0,658112	4,999847
0,458000	0,660095	4,826050
0,459000	0,669861	4,505005
0,460000	0,654144	4,488831
0,461000	0,680542	3,467712
0,462000	0,646820	3,986206
0,463000	0,690460	4,999847
0,464000	0,638428	4,999847
0,465000	0,698090	4,999847
0,466000	0,636749	4,999847
0,467000	0,702362	4,999847
0,468000	0,644989	4,345398
0,469000	0,688171	3,070374
0,470000	0,655975	4,213562
0,471000	0,677643	4,717712
0,472000	0,676575	4,999847
0,473000	0,674744	4,999847
0,474000	0,687103	4,999847
0,475000	0,667267	4,999847
0,476000	0,698853	4,999847
0,477000	0,663605	4,999847
0,478000	0,713806	4,999847
0,479000	0,658112	3,720551
0,480000	0,722961	2,622223
0,481000	0,656586	4,317017
0,482000	0,688782	4,640961
0,483000	0,648956	4,981842
0,484000	0,699768	4,999847
0,485000	0,683594	4,999847
0,486000	0,696411	4,999847
0,487000	0,695496	4,999847
0,488000	0,688934	4,999847
0,489000	0,711365	3,969421
0,490000	0,677795	2,518616
0,491000	0,720520	3,719177
0,492000	0,672760	4,999847
0,493000	0,733337	4,999847
0,494000	0,666656	4,999847
0,495000	0,743713	4,999847
0,496000	0,674438	4,999847
0,497000	0,732574	4,999847
0,498000	0,684967	4,607544
0,499000	0,718079	4,356537
0,500000	0,691986	3,929749
0,501000	0,692902	2,931671
0,502000	0,703430	4,269562
0,503000	0,684662	4,999847
0,504000	0,720673	4,999847
0,505000	0,679626	4,999847
0,506000	0,735168	4,999847
0,507000	0,663452	4,999847
0,508000	0,743103	4,372559
0,509000	0,652161	3,537903
0,510000	0,749664	1,676331
0,511000	0,668793	4,799652
0,512000	0,733185	4,999847
0,513000	0,690308	4,999847
0,514000	0,721436	4,999847
0,515000	0,708771	4,999847
0,516000	0,705109	4,999847
0,517000	0,720978	4,999847
0,518000	0,691223	4,653168
0,519000	0,735779	4,069824
0,520000	0,680084	4,293060
0,521000	0,750732	3,353729
0,522000	0,677032	4,151611
0,523000	0,766754	4,999847
0,524000	0,668488	4,999847
0,525000	0,767365	4,999847
0,526000	0,693817	4,999847
0,527000	0,749512	4,999847
0,528000	0,710297	4,999847
0,529000	0,732269	3,254242
0,530000	0,727844	4,031677
0,531000	0,718842	4,934540
0,532000	0,745087	4,999847
0,533000	0,703583	4,999847
0,534000	0,758667	4,999847
0,535000	0,689850	4,999847
0,536000	0,772095	4,999847
0,537000	0,677185	4,999847
0,538000	0,784607	4,999847
0,539000	0,685272	4,646759
0,540000	0,774689	3,153534
0,541000	0,704956	3,671570
0,542000	0,751801	4,705200
0,543000	0,719604	4,999847
0,544000	0,732422	4,999847
0,545000	0,742035	4,999847
0,546000	0,723114	4,999847
0,547000	0,761871	4,999847
0,548000	0,713501	3,985138
0,549000	0,780029	2,969055
0,550000	0,699005	2,942047
0,551000	0,792542	4,092865
0,552000	0,684967	4,999847
0,553000	0,804138	4,999847
0,554000	0,708160	4,999847
0,555000	0,778046	4,999847
0,556000	0,724945	4,999847
0,557000	0,769806	4,999847
0,558000	0,749207	4,999847
0,559000	0,757294	4,315796
0,560000	0,770721	3,722687
0,561000	0,746613	3,292847
0,562000	0,789948	4,625702
0,563000	0,736847	4,999847
0,564000	0,809021	4,999847
0,565000	0,729675	4,999847
0,566000	0,827026	4,999847
0,567000	0,724640	4,999847
0,568000	0,838928	4,999847
0,569000	0,744934	3,499908
0,570000	0,821533	3,225098
0,571000	0,762634	3,859253
0,572000	0,792999	4,971313
0,573000	0,779877	4,999847
0,574000	0,778503	4,999847
0,575000	0,799255	4,999847
0,576000	0,771637	4,999847
0,577000	0,820923	4,999847
0,578000	0,754395	4,999847
0,579000	0,835724	4,233856
0,580000	0,739594	2,852936
0,581000	0,850830	4,077606
0,582000	0,744019	4,367218
0,583000	0,864716	4,999847
0,584000	0,770264	4,999847
0,585000	0,826874	4,999847
0,586000	0,785828	4,999847
0,587000	0,820923	4,999847
0,588000	0,813446	4,727783
0,589000	0,826874	2,925262
0,590000	0,848236	3,664551
0,591000	0,865173	4,852753
0,592000	0,858002	4,999847
0,593000	0,850525	4,999847
0,594000	0,757904	4,999847
0,595000	0,753174	4,999847
0,596000	0,751190	4,999847
0,597000	0,772095	4,999847
0,598000	0,870209	4,976196
0,599000	0,797882	3,837891
0,600000	0,850220	3,665619
0,601000	0,818176	2,845612
0,602000	0,830231	3,853455
0,603000	0,836792	4,999847
0,604000	0,812073	4,999847
0,605000	0,854340	4,999847
0,606000	0,790253	4,999847
0,607000	0,865326	4,999847
0,608000	0,780487	4,088745
0,609000	0,883026	3,831329
0,610000	0,783997	4,523926
0,611000	0,872345	4,999847
0,612000	0,785370	4,999847
0,613000	0,871277	4,999847
0,614000	0,816803	4,999847
0,615000	0,855713	4,999847
0,616000	0,839844	4,999847
0,617000	0,835876	4,999847
0,618000	0,857697	4,647675
0,619000	0,818481	4,016266
0,620000	0,873566	4,282532
0,621000	0,810394	2,928467
0,622000	0,889282	4,999847
0,623000	0,795288	4,999847
0,624000	0,893860	4,999847
0,625000	0,790253	4,999847
0,626000	0,895233	4,999847
0,627000	0,824738	4,999847
0,628000	0,883942	3,991089
0,629000	0,841217	3,297577
0,630000	0,861969	2,671814
0,631000	0,860748	4,261780
0,632000	0,839844	4,999847
0,633000	0,874939	4,999847
0,634000	0,827484	4,999847
0,635000	0,888977	4,999847
0,636000	0,804596	4,999847
0,637000	0,893555	4,999847
0,638000	0,774078	4,999847
0,639000	0,895081	4,238281
0,640000	0,778046	4,576721
0,641000	0,708466	3,105011
0,642000	0,674896	4,561462
0,643000	0,660553	4,999847
0,644000	0,653076	4,999847
0,645000	0,650635	4,999847
0,646000	0,648804	4,999847
0,647000	0,647430	4,999847
0,648000	0,646973	4,437256
0,649000	0,646515	3,025665
0,650000	0,646973	4,409332
0,651000	0,646210	4,338379
0,652000	0,646210	4,999847
0,653000	0,646210	4,999847
0,654000	0,646362	4,999847
0,655000	0,646057	4,999847
0,656000	0,645905	4,999847
0,657000	0,645905	4,999847
0,658000	0,645905	4,999847
0,659000	0,645752	4,639130
0,660000	0,645752	1,029510
0,661000	0,640259	4,006958
0,662000	0,604095	4,786682
0,663000	0,586243	4,999847
0,664000	0,579224	4,999847
0,665000	0,574799	4,999847
0,666000	0,572662	4,999847
0,667000	0,527039	4,999847
0,668000	0,539551	4,989166
0,669000	0,551910	3,397369
0,670000	0,565948	1,875153
0,671000	0,569611	4,007111
0,672000	0,567169	4,999847
0,673000	0,563202	4,999847
0,674000	0,554199	4,999847
0,675000	0,555115	4,999847
0,676000	0,535889	4,999847
0,677000	0,553894	4,999847
0,678000	0,562592	4,999847
0,679000	0,566711	4,395752
0,680000	0,524902	4,113922
0,681000	0,546875	4,114227
0,682000	0,559387	4,328461
0,683000	0,563812	4,383240
0,684000	0,560455	4,999847
0,685000	0,560760	4,999847
0,686000	0,521698	4,999847
0,687000	0,506439	4,999847
0,688000	0,508270	4,999847
0,689000	0,540771	3,462067
0,690000	0,553436	1,858521
0,691000	0,558472	4,999847
0,692000	0,560760	4,999847
0,693000	0,557556	4,999847
0,694000	0,554047	4,999847
0,695000	0,547943	4,999847
0,696000	0,550232	4,999847
0,697000	0,556946	4,999847
0,698000	0,554962	4,999847
0,699000	0,555878	4,403534
0,700000	0,558472	3,212585
0,701000	0,522461	3,978271
0,702000	0,529022	4,022369
0,703000	0,539551	4,999847
0,704000	0,553436	4,999847
0,705000	0,552826	4,999847
0,706000	0,553589	4,999847
0,707000	0,542450	4,999847
0,708000	0,541534	4,195709
0,709000	0,546417	3,220367
0,710000	0,547333	2,496490
0,711000	0,536346	4,999847
0,712000	0,492859	4,999847
0,713000	0,539856	4,999847
0,714000	0,560913	4,999847
0,715000	0,568542	4,999847
0,716000	0,565948	4,999847
0,717000	0,569458	4,999847
0,718000	0,568695	4,999847
0,719000	0,528870	3,762360
0,720000	0,523376	4,928131
0,721000	0,547638	3,322296
0,722000	0,562439	4,803314
0,723000	0,559540	4,999847
0,724000	0,558167	4,999847
0,725000	0,561523	4,999847
0,726000	0,565338	4,999847
0,727000	0,561066	4,999847
0,728000	0,560760	4,685059
0,729000	0,553436	2,733307
0,730000	0,543365	3,560486
0,731000	0,552979	4,998322
0,732000	0,556793	4,999847
0,733000	0,552216	4,999847
0,734000	0,534515	4,999847
0,735000	0,518188	4,999847
0,736000	0,459747	4,999847
0,737000	0,507202	4,999847
0,738000	0,531006	4,999847
0,739000	0,538177	4,663544
0,740000	0,541992	2,689056
0,741000	0,540466	4,458771
0,742000	0,541534	4,178619
0,743000	0,540924	4,999847
0,744000	0,548553	4,999847
0,745000	0,550079	4,999847
0,746000	0,552063	4,999847
0,747000	0,551605	4,999847
0,748000	0,550995	4,545288
0,749000	0,544586	3,651123
0,750000	0,541382	2,857513
0,751000	0,540619	4,999847
0,752000	0,539856	4,999847
0,753000	0,544128	4,999847
0,754000	0,535278	4,999847
0,755000	0,501862	4,999847
0,756000	0,532227	4,999847
0,757000	0,545044	4,999847
0,758000	0,548706	4,999847
0,759000	0,553741	3,649902
0,760000	0,551605	4,346466
0,761000	0,554199	3,889313
0,762000	0,551758	4,385681
0,763000	0,558319	4,999847
0,764000	0,554352	4,999847
0,765000	0,557404	4,999847
0,766000	0,553589	4,999847
0,767000	0,557251	4,999847
0,768000	0,553436	4,999847
0,769000	0,553436	2,936401
0,770000	0,555725	2,785950
0,771000	0,552979	4,999847
0,772000	0,556641	4,950562
0,773000	0,547485	4,999847
0,774000	0,557251	4,999847
0,775000	0,544586	4,999847
0,776000	0,560303	4,999847
0,777000	0,546265	4,999847
0,778000	0,552979	4,999847
0,779000	0,480042	4,179077
0,780000	0,507812	3,013458
0,781000	0,514374	4,433441
0,782000	0,544128	4,606934
0,783000	0,555267	4,999847
0,784000	0,561676	4,999847
0,785000	0,570068	4,999847
0,786000	0,569000	4,999847
0,787000	0,576477	4,859161
0,788000	0,565948	4,888763
0,789000	0,551300	3,543243
0,790000	0,535126	3,315735
0,791000	0,567780	4,669647
0,792000	0,554047	4,999847
0,793000	0,572205	4,999847
0,794000	0,554962	4,999847
0,795000	0,571136	4,999847
0,796000	0,567932	4,999847
0,797000	0,573578	4,999847
0,798000	0,572357	4,999847
0,799000	0,567932	3,212433
0,800000	0,577240	4,999847
0,801000	0,566711	4,575195
0,802000	0,581818	4,335480
0,803000	0,570679	4,999847
0,804000	0,586090	4,999847
0,805000	0,568695	4,999847
0,806000	0,594788	4,999847
0,807000	0,566406	4,999847
0,808000	0,587769	4,911957
0,809000	0,566711	2,586670
0,810000	0,581360	2,339020
0,811000	0,578156	4,999847
0,812000	0,539093	4,999847
0,813000	0,566864	4,999847
0,814000	0,578156	4,999847
0,815000	0,597076	4,999847
0,816000	0,588684	4,999847
0,817000	0,606689	4,999847
0,818000	0,586853	4,816589
0,819000	0,608368	3,670959
0,820000	0,588074	3,504333
0,821000	0,614166	3,439178
0,822000	0,581818	4,622650
0,823000	0,600128	4,999847
0,824000	0,589905	4,999847
0,825000	0,601501	4,999847
0,826000	0,601807	4,999847
0,827000	0,601654	4,999847
0,828000	0,611267	4,657135
0,829000	0,599518	3,366241
0,830000	0,615997	4,224396
0,831000	0,600281	4,405670
0,832000	0,623474	4,999847
0,833000	0,597076	4,999847
0,834000	0,629730	4,999847
0,835000	0,532684	4,999847
0,836000	0,596619	4,999847
0,837000	0,589752	4,999847
0,838000	0,615692	4,999847
0,839000	0,607300	3,428192
0,840000	0,613251	4,381561
0,841000	0,615082	3,937683
0,842000	0,611267	4,999847
0,843000	0,624390	4,999847
0,844000	0,609589	4,999847
0,845000	0,632935	4,999847
0,846000	0,600586	4,999847
0,847000	0,635986	4,999847
0,848000	0,597382	3,891754
0,849000	0,641632	2,882538
0,850000	0,594482	3,219757
0,851000	0,631409	4,583435
0,852000	0,610046	4,999847
0,853000	0,628662	4,999847
0,854000	0,620270	4,999847
0,855000	0,617676	4,999847
0,856000	0,622101	4,999847
0,857000	0,601196	4,999847
0,858000	0,636444	4,161835
0,859000	0,616302	3,488312
0,860000	0,652924	4,999847
0,861000	0,613556	3,930206
0,862000	0,660400	4,999847
0,863000	0,601654	4,999847
0,864000	0,659485	4,999847
0,865000	0,617523	4,999847
0,866000	0,647736	4,999847
0,867000	0,628967	4,999847
0,868000	0,649567	4,999847
0,869000	0,648346	3,101044
0,870000	0,644531	3,222351
0,871000	0,656586	4,999847
0,872000	0,638580	4,999847
0,873000	0,666199	4,999847
0,874000	0,631561	4,999847
0,875000	0,672913	4,999847
0,876000	0,576935	4,999847
0,877000	0,659790	4,999847
0,878000	0,613556	4,999847
0,879000	0,671844	3,504333
0,880000	0,626984	4,869690
0,881000	0,663300	3,386078
0,882000	0,644379	4,926453
0,883000	0,655823	4,999847
0,884000	0,653229	4,999847
0,885000	0,643768	4,999847
0,886000	0,662689	4,999847
0,887000	0,634613	4,999847
0,888000	0,673065	4,162292
0,889000	0,623169	3,569946
0,890000	0,682068	3,471375
0,891000	0,606537	4,999847
0,892000	0,658722	4,999847
0,893000	0,601349	4,999847
0,894000	0,669556	4,999847
0,895000	0,629120	4,999847
0,896000	0,665741	4,999847
0,897000	0,650482	4,999847
0,898000	0,653992	4,692535
0,899000	0,659027	3,561554
0,900000	0,622101	4,161682
0,901000	0,651398	3,941803
0,902000	0,641174	4,999847
0,903000	0,694733	4,999847
0,904000	0,644379	4,999847
0,905000	0,708008	4,999847
0,906000	0,622864	4,999847
0,907000	0,705872	4,999847
0,908000	0,639496	4,090576
0,909000	0,693817	3,242493
0,910000	0,655975	3,234711
0,911000	0,658417	4,663086
0,912000	0,641479	4,999847
0,913000	0,651245	4,999847
0,914000	0,676270	4,999847
0,915000	0,656433	4,999847
0,916000	0,697327	4,999847
0,917000	0,649567	4,999847
0,918000	0,709076	4,796600
0,919000	0,635681	4,101410
0,920000	0,719757	3,938599
0,921000	0,617065	3,525085
0,922000	0,706177	4,999847
0,923000	0,630341	4,999847
0,924000	0,688019	4,999847
0,925000	0,655365	4,999847
0,926000	0,677338	4,999847
0,927000	0,677185	4,999847
0,928000	0,670624	4,872589
0,929000	0,696869	3,596039
0,930000	0,659332	3,376770
0,931000	0,709534	4,095001
0,932000	0,648499	4,999847
0,933000	0,720367	4,999847
0,934000	0,619354	4,999847
0,935000	0,722198	4,999847
0,936000	0,638275	4,999847
0,937000	0,720062	4,999847
0,938000	0,664215	4,999847
0,939000	0,703278	4,168243
0,940000	0,679474	4,008789
0,941000	0,685120	3,796692
0,942000	0,691528	4,999847
0,943000	0,663300	4,999847
0,944000	0,702057	4,999847
0,945000	0,646667	4,999847
0,946000	0,715332	4,999847
0,947000	0,636902	4,999847
0,948000	0,730133	4,714355
0,949000	0,625153	2,956390
0,950000	0,740509	3,017120
0,951000	0,650177	4,999847
0,952000	0,724030	4,999847
0,953000	0,670929	4,999847
0,954000	0,704041	4,999847
0,955000	0,684052	4,999847
0,956000	0,686188	4,999847
0,957000	0,702209	4,999847
0,958000	0,668793	4,999847
0,959000	0,716400	4,252319
0,960000	0,649414	4,752960
0,961000	0,728912	3,873901
0,962000	0,644226	4,999847
0,963000	0,746765	4,999847
0,964000	0,635376	4,999847
0,965000	0,745239	4,999847
0,966000	0,661469	4,999847
0,967000	0,724030	4,544373
0,968000	0,682220	4,672241
0,969000	0,705414	2,805939
0,970000	0,702057	4,440918
0,971000	0,692596	4,999847
0,972000	0,722809	4,999847
0,973000	0,680237	4,999847
0,974000	0,741119	4,999847
0,975000	0,668335	4,999847
0,976000	0,756226	4,999847
0,977000	0,660248	4,999847
0,978000	0,769653	4,999847
0,979000	0,659485	3,389130
0,980000	0,748291	4,830322
0,981000	0,682678	3,860321
0,982000	0,730438	4,270020
0,983000	0,704346	4,999847
0,984000	0,720673	4,999847
0,985000	0,729980	4,999847
0,986000	0,714874	4,999847
0,987000	0,751495	4,999847
0,988000	0,703888	4,475861
0,989000	0,769348	3,216248
0,990000	0,690765	2,883453
0,991000	0,784149	4,786835
0,992000	0,678406	4,999847
0,993000	0,796204	4,999847
0,994000	0,665894	4,999847
0,995000	0,740662	4,999847
0,996000	0,701141	4,999847
0,997000	0,753479	4,999847
0,998000	0,735931	4,779663
0,999000	0,738220	4,008179

