LabVIEW Measurement	
Writer_Version	2
Reader_Version	2
Separator	Tab
Decimal_Separator	,
Multi_Headings	Yes
X_Columns	One
Time_Pref	Absolute
Operator	d.nicolai
Date	2023/11/09
Time	16:04:05,6565121999996605588
***End_of_Header***	
	
Channels	2		
Samples	1000	1000	
Date	2023/11/09	2023/11/09	
Time	16:04:49,2665125999998624983	16:04:49,2665125999998624983	
Y_Unit_Label	Volts	Volts	
X_Dimension	Time	Time	
X0	0,0000000000000000E+0	0,0000000000000000E+0	
Delta_X	0,001000	0,001000	
***End_of_Header***			
X_Value	powebox	triggerbox	Comment
0,000000	0,862732	0,836029
0,001000	0,774841	4,292450
0,002000	0,876923	4,302826
0,003000	0,766754	4,999847
0,004000	0,876007	4,999847
0,005000	0,784149	4,999847
0,006000	0,851898	4,999847
0,007000	0,803528	4,999847
0,008000	0,830383	4,999847
0,009000	0,822144	3,188629
0,010000	0,813599	2,473450
0,011000	0,841980	4,625702
0,012000	0,800629	4,673004
0,013000	0,861206	4,999847
0,014000	0,786438	4,999847
0,015000	0,876465	4,999847
0,016000	0,776215	4,999847
0,017000	0,888367	4,999847
0,018000	0,784149	4,999847
0,019000	0,887909	4,278564
0,020000	0,808563	3,215485
0,021000	0,863342	3,022156
0,022000	0,827789	4,560394
0,023000	0,840302	4,912415
0,024000	0,845184	4,999847
0,025000	0,809326	4,999847
0,026000	0,856476	4,999847
0,027000	0,808411	4,999847
0,028000	0,879364	4,050598
0,029000	0,796967	3,603821
0,030000	0,890503	3,120422
0,031000	0,784149	4,498291
0,032000	0,894470	4,901276
0,033000	0,801544	4,999847
0,034000	0,884552	4,999847
0,035000	0,759583	4,999847
0,036000	0,699158	4,999847
0,037000	0,671844	4,999847
0,038000	0,659485	4,892578
0,039000	0,653687	3,711548
0,040000	0,651398	3,434448
0,041000	0,650330	3,798065
0,042000	0,649719	4,169159
0,043000	0,649261	4,999847
0,044000	0,649872	4,999847
0,045000	0,649567	4,999847
0,046000	0,649261	4,999847
0,047000	0,649567	4,999847
0,048000	0,649872	4,971313
0,049000	0,649719	3,990021
0,050000	0,649261	3,227386
0,051000	0,648651	3,784180
0,052000	0,648804	4,963074
0,053000	0,648041	4,999847
0,054000	0,648041	4,999847
0,055000	0,646515	4,999847
0,056000	0,565338	4,999847
0,057000	0,524139	4,999847
0,058000	0,489807	4,999847
0,059000	0,474091	4,130249
0,060000	0,462799	3,694305
0,061000	0,463715	2,980347
0,062000	0,453796	4,303284
0,063000	0,446167	4,999847
0,064000	0,424194	4,999847
0,065000	0,417175	4,999847
0,066000	0,398102	4,999847
0,067000	0,394745	4,999847
0,068000	0,392609	4,999847
0,069000	0,410614	3,683167
0,070000	0,398560	2,690430
0,071000	0,418396	4,525146
0,072000	0,398560	4,485168
0,073000	0,419312	4,999847
0,074000	0,404053	4,999847
0,075000	0,417175	4,999847
0,076000	0,408936	4,999847
0,077000	0,414734	4,999847
0,078000	0,414429	4,982300
0,079000	0,412750	3,736725
0,080000	0,419006	2,500916
0,081000	0,409698	4,766693
0,082000	0,423431	4,240417
0,083000	0,408020	4,999847
0,084000	0,428009	4,999847
0,085000	0,406189	4,999847
0,086000	0,432892	4,999847
0,087000	0,406952	4,999847
0,088000	0,430603	4,999847
0,089000	0,412903	3,105774
0,090000	0,426636	3,483429
0,091000	0,419312	4,999847
0,092000	0,423584	4,859009
0,093000	0,425262	4,999847
0,094000	0,420074	4,999847
0,095000	0,430908	4,999847
0,096000	0,417633	4,999847
0,097000	0,437012	4,999847
0,098000	0,414886	4,999847
0,099000	0,442352	4,060364
0,100000	0,412445	3,692627
0,101000	0,446472	4,747772
0,102000	0,416107	4,018707
0,103000	0,441437	4,999847
0,104000	0,423889	4,999847
0,105000	0,437164	4,999847
0,106000	0,431366	4,999847
0,107000	0,432892	4,999847
0,108000	0,438538	3,959656
0,109000	0,428772	2,991180
0,110000	0,445404	4,307098
0,111000	0,424957	4,387970
0,112000	0,451660	4,880676
0,113000	0,421906	4,999847
0,114000	0,457916	4,999847
0,115000	0,419006	4,999847
0,116000	0,458374	4,999847
0,117000	0,426941	4,999847
0,118000	0,451965	4,999847
0,119000	0,435944	3,663177
0,120000	0,446930	3,901978
0,121000	0,444336	3,002319
0,122000	0,441742	4,319305
0,123000	0,452881	4,999847
0,124000	0,437012	4,999847
0,125000	0,459900	4,999847
0,126000	0,432587	4,999847
0,127000	0,467529	4,999847
0,128000	0,429077	4,875641
0,129000	0,474854	2,921143
0,130000	0,428619	3,278961
0,131000	0,470734	4,512482
0,132000	0,439606	4,999847
0,133000	0,463867	4,999847
0,134000	0,450134	4,999847
0,135000	0,460052	4,999847
0,136000	0,478668	4,999847
0,137000	0,469513	4,999847
0,138000	0,485992	4,999847
0,139000	0,463257	4,161072
0,140000	0,495605	3,423615
0,141000	0,458832	4,930420
0,142000	0,504150	3,611450
0,143000	0,453033	4,999847
0,144000	0,508881	4,999847
0,145000	0,456543	4,999847
0,146000	0,499573	4,999847
0,147000	0,468445	4,999847
0,148000	0,491333	4,999847
0,149000	0,480347	3,380280
0,150000	0,483398	4,372253
0,151000	0,491180	3,816376
0,152000	0,476990	4,999847
0,153000	0,501556	4,999847
0,154000	0,469971	4,999847
0,155000	0,510559	4,999847
0,156000	0,464172	4,999847
0,157000	0,519562	4,999847
0,158000	0,459137	4,309845
0,159000	0,520782	4,384308
0,160000	0,469208	4,501343
0,161000	0,510559	2,730560
0,162000	0,482483	4,895325
0,163000	0,500946	4,999847
0,164000	0,495148	4,999847
0,165000	0,492096	4,999847
0,166000	0,507507	4,999847
0,167000	0,484467	4,999847
0,168000	0,519257	4,631500
0,169000	0,459442	3,427734
0,170000	0,520630	3,164368
0,171000	0,467224	4,999695
0,172000	0,536041	4,999847
0,173000	0,466766	4,999847
0,174000	0,530853	4,999847
0,175000	0,483093	4,999847
0,176000	0,520782	4,999847
0,177000	0,497742	4,999847
0,178000	0,510101	4,402618
0,179000	0,512238	3,849335
0,180000	0,501556	2,904205
0,181000	0,523834	4,957733
0,182000	0,492401	3,971558
0,183000	0,535126	4,999847
0,184000	0,484467	4,999847
0,185000	0,546112	4,999847
0,186000	0,477905	4,999847
0,187000	0,555725	4,999847
0,188000	0,483398	4,942780
0,189000	0,542908	4,319916
0,190000	0,498962	4,887543
0,191000	0,530396	3,677063
0,192000	0,514221	4,999847
0,193000	0,518951	4,999847
0,194000	0,528259	4,999847
0,195000	0,509033	4,999847
0,196000	0,541382	4,999847
0,197000	0,501404	4,999847
0,198000	0,554199	4,651031
0,199000	0,492249	3,786926
0,200000	0,565033	4,267578
0,201000	0,484772	3,278503
0,202000	0,567017	4,575806
0,203000	0,497284	4,999847
0,204000	0,552826	4,999847
0,205000	0,514984	4,999847
0,206000	0,540009	4,999847
0,207000	0,531006	4,999847
0,208000	0,528564	4,465027
0,209000	0,546112	3,674622
0,210000	0,518799	3,273163
0,211000	0,560455	4,999847
0,212000	0,508575	4,999847
0,213000	0,572662	4,999847
0,214000	0,500031	4,999847
0,215000	0,584564	4,999847
0,216000	0,494537	4,999847
0,217000	0,577698	4,999847
0,218000	0,514374	4,142303
0,219000	0,563507	4,140015
0,220000	0,532379	3,548431
0,221000	0,550690	3,554687
0,222000	0,549927	4,537048
0,223000	0,537872	4,999847
0,224000	0,564575	4,999847
0,225000	0,526581	4,999847
0,226000	0,579376	4,999847
0,227000	0,517120	4,999847
0,228000	0,592651	4,464569
0,229000	0,507965	3,686829
0,230000	0,604553	3,234558
0,231000	0,513153	4,007874
0,232000	0,588989	4,856415
0,233000	0,532684	4,999847
0,234000	0,573273	4,999847
0,235000	0,551147	4,999847
0,236000	0,559845	4,999847
0,237000	0,568848	4,999847
0,238000	0,547485	4,395599
0,239000	0,584564	4,670868
0,240000	0,536499	4,002838
0,241000	0,599823	2,829285
0,242000	0,526123	4,999847
0,243000	0,614319	4,734344
0,244000	0,517731	4,999847
0,245000	0,617218	4,999847
0,246000	0,531464	4,999847
0,247000	0,599670	4,999847
0,248000	0,552368	4,139862
0,249000	0,584106	3,666229
0,250000	0,571594	2,435455
0,251000	0,570374	3,825378
0,252000	0,590515	4,999847
0,253000	0,558319	4,999847
0,254000	0,606232	4,999847
0,255000	0,547180	4,999847
0,256000	0,621185	4,999847
0,257000	0,537415	4,999847
0,258000	0,635376	4,999847
0,259000	0,530396	4,313049
0,260000	0,629730	4,281616
0,261000	0,553284	3,834686
0,262000	0,612030	4,288025
0,263000	0,574951	4,596710
0,264000	0,596771	4,999847
0,265000	0,594177	4,999847
0,266000	0,582733	4,999847
0,267000	0,612030	4,999847
0,268000	0,570374	4,521637
0,269000	0,628815	3,809052
0,270000	0,559387	3,542175
0,271000	0,621948	4,112701
0,272000	0,530701	4,999847
0,273000	0,650024	4,999847
0,274000	0,548401	4,999847
0,275000	0,640717	4,999847
0,276000	0,575256	4,999847
0,277000	0,624084	4,999847
0,278000	0,597534	4,759674
0,279000	0,609589	4,637299
0,280000	0,617981	4,654083
0,281000	0,597076	3,793182
0,282000	0,636902	4,140167
0,283000	0,584564	4,999847
0,284000	0,652924	4,999847
0,285000	0,573883	4,999847
0,286000	0,668488	4,999847
0,287000	0,564270	4,999847
0,288000	0,675049	4,437408
0,289000	0,577850	3,960571
0,290000	0,655823	3,983154
0,291000	0,602264	4,500885
0,292000	0,639801	4,999847
0,293000	0,623322	4,999847
0,294000	0,624084	4,999847
0,295000	0,643005	4,999847
0,296000	0,611267	4,999847
0,297000	0,661316	4,999847
0,298000	0,599365	4,999847
0,299000	0,678253	4,136505
0,300000	0,588989	2,750702
0,301000	0,693359	3,808441
0,302000	0,581055	3,652344
0,303000	0,689392	4,999847
0,304000	0,604401	4,999847
0,305000	0,670471	4,999847
0,306000	0,628357	4,999847
0,307000	0,654144	4,999847
0,308000	0,649872	4,410858
0,309000	0,639343	3,513947
0,310000	0,669098	2,033997
0,311000	0,627899	4,798279
0,312000	0,687714	4,999847
0,313000	0,616608	4,999847
0,314000	0,703888	4,999847
0,315000	0,606232	4,999847
0,316000	0,718994	4,999847
0,317000	0,607300	4,999847
0,318000	0,703888	4,999847
0,319000	0,632782	4,167328
0,320000	0,686646	3,310852
0,321000	0,656128	4,078522
0,322000	0,670624	3,607330
0,323000	0,676575	4,999847
0,324000	0,656586	4,999847
0,325000	0,695953	4,999847
0,326000	0,644073	4,999847
0,327000	0,713959	4,999847
0,328000	0,633850	4,999847
0,329000	0,730133	3,324432
0,330000	0,624237	1,794739
0,331000	0,739136	4,999847
0,332000	0,636292	4,999847
0,333000	0,719147	4,999847
0,334000	0,660706	4,999847
0,335000	0,702209	4,999847
0,336000	0,683594	4,999847
0,337000	0,686798	4,999847
0,338000	0,704193	4,999847
0,339000	0,673828	3,551483
0,340000	0,723114	3,448792
0,341000	0,661926	3,787231
0,342000	0,740204	4,100189
0,343000	0,650940	4,999847
0,344000	0,756073	4,999847
0,345000	0,641937	4,999847
0,346000	0,753632	4,999847
0,347000	0,664978	4,999847
0,348000	0,736084	4,418030
0,349000	0,689087	3,378448
0,350000	0,718536	2,915497
0,351000	0,711670	3,506012
0,352000	0,703430	4,999847
0,353000	0,731201	4,999847
0,354000	0,690613	4,999847
0,355000	0,749969	4,999847
0,356000	0,679169	4,999847
0,357000	0,767365	4,999847
0,358000	0,669250	4,999847
0,359000	0,782928	4,188538
0,360000	0,667725	4,812012
0,361000	0,770416	4,072113
0,362000	0,694733	3,349915
0,363000	0,751343	4,999847
0,364000	0,717773	4,999847
0,365000	0,735168	4,999847
0,366000	0,739288	4,999847
0,367000	0,720978	4,999847
0,368000	0,759277	4,999847
0,369000	0,708466	3,736115
0,370000	0,777283	4,609833
0,371000	0,697327	3,187103
0,372000	0,794525	4,833679
0,373000	0,681915	4,999847
0,374000	0,786743	4,999847
0,375000	0,689087	4,999847
0,376000	0,781403	4,999847
0,377000	0,721130	4,999847
0,378000	0,766296	4,999847
0,379000	0,745392	3,833618
0,380000	0,751343	3,697205
0,381000	0,767822	4,571381
0,382000	0,737915	2,924194
0,383000	0,786133	4,999847
0,384000	0,725555	4,999847
0,385000	0,803070	4,999847
0,386000	0,714569	4,999847
0,387000	0,819550	4,999847
0,388000	0,705566	4,199829
0,389000	0,819244	3,188171
0,390000	0,727081	3,640442
0,391000	0,800323	4,998627
0,392000	0,750732	4,774628
0,393000	0,783386	4,999847
0,394000	0,773163	4,999847
0,395000	0,767975	4,999847
0,396000	0,793762	4,999847
0,397000	0,754700	4,999847
0,398000	0,812531	4,561462
0,399000	0,709991	3,867645
0,400000	0,792389	3,986664
0,401000	0,700378	4,021454
0,402000	0,808105	4,606628
0,403000	0,696564	4,999847
0,404000	0,798340	4,999847
0,405000	0,721741	4,999847
0,406000	0,780792	4,999847
0,407000	0,744476	4,999847
0,408000	0,764618	4,219971
0,409000	0,764923	3,235931
0,410000	0,750732	3,278809
0,411000	0,784149	4,354553
0,412000	0,738220	4,999847
0,413000	0,801697	4,999847
0,414000	0,727692	4,999847
0,415000	0,818634	4,999847
0,416000	0,717773	4,999847
0,417000	0,832825	4,999847
0,418000	0,725250	4,495697
0,419000	0,815277	4,155121
0,420000	0,749512	3,631287
0,421000	0,798035	3,630371
0,422000	0,771332	3,462372
0,423000	0,782318	4,999847
0,424000	0,791321	4,999847
0,425000	0,768585	4,999847
0,426000	0,733337	4,999847
0,427000	0,742645	4,999847
0,428000	0,746765	4,999847
0,429000	0,749664	3,662109
0,430000	0,849152	2,561798
0,431000	0,756073	3,547821
0,432000	0,822449	4,999847
0,433000	0,774384	4,999847
0,434000	0,803680	4,999847
0,435000	0,794220	4,999847
0,436000	0,788269	4,999847
0,437000	0,813293	4,999847
0,438000	0,774384	4,138489
0,439000	0,832367	3,303833
0,440000	0,762177	2,327728
0,441000	0,850220	4,291992
0,442000	0,751190	4,981384
0,443000	0,865784	4,999847
0,444000	0,751190	4,999847
0,445000	0,849915	4,999847
0,446000	0,775604	4,999847
0,447000	0,832367	4,999847
0,448000	0,797424	4,999847
0,449000	0,816040	3,710175
0,450000	0,818176	2,563782
0,451000	0,801392	4,878998
0,452000	0,838165	4,999847
0,453000	0,787201	4,999847
0,454000	0,856018	4,999847
0,455000	0,774078	4,999847
0,456000	0,871429	4,999847
0,457000	0,762329	4,999847
0,458000	0,876312	4,999847
0,459000	0,773010	4,936981
0,460000	0,856171	3,658600
0,461000	0,796204	4,263458
0,462000	0,838470	4,547424
0,463000	0,817261	4,999847
0,464000	0,822449	4,999847
0,465000	0,838318	4,999847
0,466000	0,807495	4,999847
0,467000	0,857544	4,999847
0,468000	0,793457	4,322662
0,469000	0,874176	3,494263
0,470000	0,780029	3,423004
0,471000	0,885620	3,331146
0,472000	0,768433	4,999847
0,473000	0,705261	4,999847
0,474000	0,676575	4,999847
0,475000	0,663452	4,999847
0,476000	0,641479	4,999847
0,477000	0,646820	4,999847
0,478000	0,649414	4,227295
0,479000	0,651245	4,025879
0,480000	0,651703	4,160767
0,481000	0,652161	3,534393
0,482000	0,652008	4,053955
0,483000	0,651855	4,999847
0,484000	0,651245	4,999847
0,485000	0,651398	4,999847
0,486000	0,651398	4,999847
0,487000	0,651550	4,999847
0,488000	0,651398	4,052734
0,489000	0,651245	3,328705
0,490000	0,651550	3,533478
0,491000	0,651398	2,834167
0,492000	0,651398	4,999847
0,493000	0,578918	4,999847
0,494000	0,483246	4,999847
0,495000	0,438385	4,999847
0,496000	0,417023	4,999847
0,497000	0,411835	4,999847
0,498000	0,402069	4,878387
0,499000	0,409698	4,576569
0,500000	0,398560	4,010010
0,501000	0,411224	3,818359
0,502000	0,396881	3,973694
0,503000	0,413818	4,999847
0,504000	0,396576	4,999847
0,505000	0,412445	4,999847
0,506000	0,401306	4,999847
0,507000	0,410461	4,999847
0,508000	0,405426	4,542389
0,509000	0,408630	3,983154
0,510000	0,410309	2,355347
0,511000	0,406952	4,380646
0,512000	0,414734	4,999847
0,513000	0,406036	4,999847
0,514000	0,419159	4,999847
0,515000	0,403748	4,999847
0,516000	0,423279	4,999847
0,517000	0,401764	4,999847
0,518000	0,426788	4,718475
0,519000	0,404510	4,927368
0,520000	0,423431	3,911438
0,521000	0,410156	3,608246
0,522000	0,420532	3,911438
0,523000	0,416260	4,999847
0,524000	0,417633	4,999847
0,525000	0,421753	4,999847
0,526000	0,414581	4,999847
0,527000	0,426941	4,999847
0,528000	0,412292	4,999847
0,529000	0,432281	4,055481
0,530000	0,410156	3,722992
0,531000	0,437164	3,987885
0,532000	0,407715	4,671326
0,533000	0,438080	4,999847
0,534000	0,413971	4,999847
0,535000	0,433655	4,999847
0,536000	0,421295	4,999847
0,537000	0,429535	4,999847
0,538000	0,427856	4,999847
0,539000	0,426178	3,758698
0,540000	0,434418	3,233032
0,541000	0,423279	4,999847
0,542000	0,441589	3,870544
0,543000	0,420532	4,266968
0,544000	0,447693	4,999847
0,545000	0,417633	4,999847
0,546000	0,453949	4,999847
0,547000	0,417175	4,999847
0,548000	0,451050	4,999847
0,549000	0,425720	4,261169
0,550000	0,445404	3,561554
0,551000	0,434113	3,482666
0,552000	0,440979	4,999847
0,553000	0,442352	4,999847
0,554000	0,436096	4,999847
0,555000	0,449829	4,999847
0,556000	0,432434	4,999847
0,557000	0,457001	4,999847
0,558000	0,428925	4,890137
0,559000	0,464935	4,237366
0,560000	0,426331	4,129181
0,561000	0,471802	3,216705
0,562000	0,447235	4,252777
0,563000	0,482483	4,999847
0,564000	0,456848	4,999847
0,565000	0,475464	4,999847
0,566000	0,466156	4,999847
0,567000	0,469055	4,999847
0,568000	0,475616	4,999847
0,569000	0,463562	3,727264
0,570000	0,484161	3,878021
0,571000	0,458221	4,999847
0,572000	0,492706	4,999847
0,573000	0,453186	4,999847
0,574000	0,499573	4,999847
0,575000	0,449066	4,999847
0,576000	0,501404	4,999847
0,577000	0,458069	4,999847
0,578000	0,485229	4,999847
0,579000	0,454102	3,707275
0,580000	0,474701	3,311005
0,581000	0,475922	3,280487
0,582000	0,475769	4,519958
0,583000	0,489349	4,999847
0,584000	0,471039	4,999847
0,585000	0,499573	4,999847
0,586000	0,465393	4,999847
0,587000	0,508575	4,999847
0,588000	0,460052	4,999847
0,589000	0,517426	3,588867
0,590000	0,457306	2,448883
0,591000	0,513000	4,999847
0,592000	0,470886	4,638672
0,593000	0,503235	4,999847
0,594000	0,483704	4,999847
0,595000	0,494385	4,999847
0,596000	0,495300	4,999847
0,597000	0,486603	4,999847
0,598000	0,506287	4,999847
0,599000	0,479279	4,104309
0,600000	0,516510	3,949585
0,601000	0,472565	3,637848
0,602000	0,526276	2,729950
0,603000	0,466766	4,999847
0,604000	0,534668	4,999847
0,605000	0,470428	4,999847
0,606000	0,523834	4,999847
0,607000	0,485382	4,999847
0,608000	0,513153	4,908600
0,609000	0,498352	3,416901
0,610000	0,503540	3,717804
0,611000	0,511169	3,364868
0,612000	0,494995	4,999847
0,613000	0,522919	4,999847
0,614000	0,486908	4,999847
0,615000	0,533905	4,999847
0,616000	0,479736	4,999847
0,617000	0,544128	4,999847
0,618000	0,473022	4,866333
0,619000	0,546417	4,528809
0,620000	0,484772	3,205566
0,621000	0,534058	4,621429
0,622000	0,500183	3,540649
0,623000	0,522614	4,999847
0,624000	0,514221	4,999847
0,625000	0,512238	4,999847
0,626000	0,527649	4,999847
0,627000	0,503235	4,999847
0,628000	0,540314	4,154205
0,629000	0,494690	3,786011
0,630000	0,552063	3,366089
0,631000	0,487366	4,731140
0,632000	0,563202	4,999847
0,633000	0,482178	4,999847
0,634000	0,557861	4,999847
0,635000	0,500031	4,999847
0,636000	0,544434	4,999847
0,637000	0,516510	4,999847
0,638000	0,532532	4,910889
0,639000	0,531769	4,220734
0,640000	0,521545	2,880096
0,641000	0,545959	4,999847
0,642000	0,511627	4,683075
0,643000	0,558624	4,999847
0,644000	0,503082	4,999847
0,645000	0,570984	4,999847
0,646000	0,494690	4,999847
0,647000	0,582275	4,999847
0,648000	0,497894	4,543762
0,649000	0,568542	3,914795
0,650000	0,515900	2,941437
0,651000	0,554657	3,932953
0,652000	0,533752	4,999847
0,653000	0,541687	4,999847
0,654000	0,549622	4,999847
0,655000	0,530548	4,999847
0,656000	0,564423	4,999847
0,657000	0,519867	4,999847
0,658000	0,577850	4,999847
0,659000	0,510864	4,222717
0,660000	0,590973	3,749695
0,661000	0,502625	3,630219
0,662000	0,595093	3,796844
0,663000	0,514221	4,999847
0,664000	0,578766	4,999847
0,665000	0,534363	4,999847
0,666000	0,564575	4,999847
0,667000	0,552063	4,999847
0,668000	0,551147	4,999847
0,669000	0,568237	3,561249
0,670000	0,539551	2,725677
0,671000	0,583954	4,999847
0,672000	0,529327	4,999847
0,673000	0,597992	4,999847
0,674000	0,520172	4,999847
0,675000	0,611267	4,999847
0,676000	0,512238	4,999847
0,677000	0,606079	4,999847
0,678000	0,533600	4,999847
0,679000	0,589752	3,908997
0,680000	0,553741	3,219910
0,681000	0,562744	3,547516
0,682000	0,564423	4,370880
0,683000	0,558167	4,999847
0,684000	0,587616	4,999847
0,685000	0,549164	4,999847
0,686000	0,604553	4,999847
0,687000	0,539093	4,999847
0,688000	0,619202	4,305573
0,689000	0,529327	4,047089
0,690000	0,632324	2,653809
0,691000	0,531464	4,744110
0,692000	0,617523	4,999847
0,693000	0,553894	4,999847
0,694000	0,600739	4,999847
0,695000	0,574646	4,999847
0,696000	0,586090	4,999847
0,697000	0,592957	4,999847
0,698000	0,572662	4,872894
0,699000	0,610504	4,488068
0,700000	0,561523	3,229828
0,701000	0,626984	4,233551
0,702000	0,550995	3,256378
0,703000	0,641785	4,999847
0,704000	0,541534	4,999847
0,705000	0,648346	4,999847
0,706000	0,553894	4,999847
0,707000	0,629578	4,999847
0,708000	0,576324	4,609985
0,709000	0,613098	4,184113
0,710000	0,597229	2,810822
0,711000	0,598602	3,906403
0,712000	0,616455	4,999847
0,713000	0,585937	4,999847
0,714000	0,633850	4,999847
0,715000	0,574188	4,999847
0,716000	0,650177	4,999847
0,717000	0,563812	4,999847
0,718000	0,665131	4,999847
0,719000	0,555115	4,419861
0,720000	0,661469	3,521118
0,721000	0,577698	4,999847
0,722000	0,642548	3,867035
0,723000	0,600128	4,999847
0,724000	0,626678	4,999847
0,725000	0,621796	4,999847
0,726000	0,611725	4,999847
0,727000	0,640564	4,999847
0,728000	0,599213	3,999786
0,729000	0,657654	4,300690
0,730000	0,587769	1,935577
0,731000	0,673676	4,016724
0,732000	0,578156	4,999847
0,733000	0,688324	4,999847
0,734000	0,578156	4,999847
0,735000	0,673828	4,999847
0,736000	0,603180	4,999847
0,737000	0,656891	4,999847
0,738000	0,625763	4,999847
0,739000	0,641022	4,745178
0,740000	0,646667	3,062744
0,741000	0,626831	4,830322
0,742000	0,665588	4,999847
0,743000	0,615387	4,999847
0,744000	0,683136	4,999847
0,745000	0,604095	4,999847
0,746000	0,699615	4,999847
0,747000	0,594940	4,999847
0,748000	0,708008	4,999847
0,749000	0,605927	3,670197
0,750000	0,688934	2,245636
0,751000	0,630798	4,220581
0,752000	0,671997	4,844818
0,753000	0,653229	4,999847
0,754000	0,656738	4,999847
0,755000	0,673523	4,999847
0,756000	0,643311	4,999847
0,757000	0,692444	4,999847
0,758000	0,632172	4,999847
0,759000	0,710144	4,776459
0,760000	0,621796	3,014374
0,761000	0,725250	3,582916
0,762000	0,612183	3,849487
0,763000	0,723267	4,999847
0,764000	0,634766	4,999847
0,765000	0,704498	4,999847
0,766000	0,658875	4,999847
0,767000	0,688019	4,999847
0,768000	0,680847	4,822083
0,769000	0,673370	3,789062
0,770000	0,700226	3,306580
0,771000	0,661011	4,999847
0,772000	0,719604	4,999847
0,773000	0,649109	4,999847
0,774000	0,735779	4,999847
0,775000	0,639038	4,999847
0,776000	0,751648	4,999847
0,777000	0,637512	4,999847
0,778000	0,738831	4,999847
0,779000	0,663147	4,947357
0,780000	0,720367	4,523926
0,781000	0,687103	3,715210
0,782000	0,704346	4,202423
0,783000	0,676422	4,999847
0,784000	0,641632	4,999847
0,785000	0,706177	4,999847
0,786000	0,668640	4,999847
0,787000	0,741730	4,953766
0,788000	0,665131	4,575348
0,789000	0,761719	3,326416
0,790000	0,657196	3,465424
0,791000	0,773926	4,421692
0,792000	0,666504	4,375153
0,793000	0,754242	4,999847
0,794000	0,691986	4,999847
0,795000	0,736694	4,999847
0,796000	0,715179	4,999847
0,797000	0,721436	4,999847
0,798000	0,736389	4,999847
0,799000	0,708008	4,016571
0,800000	0,755615	3,280334
0,801000	0,695648	4,771271
0,802000	0,773468	3,936615
0,803000	0,685883	4,999847
0,804000	0,789185	4,999847
0,805000	0,675812	4,999847
0,806000	0,789795	4,999847
0,807000	0,695953	4,999847
0,808000	0,770569	4,999847
0,809000	0,720673	4,099884
0,810000	0,753174	3,394470
0,811000	0,743256	3,971710
0,812000	0,737915	4,999847
0,813000	0,763702	4,999847
0,814000	0,724945	4,999847
0,815000	0,783081	4,999847
0,816000	0,713806	4,999847
0,817000	0,799713	4,999847
0,818000	0,703125	4,592590
0,819000	0,815277	4,405060
0,820000	0,698547	3,452759
0,821000	0,804443	4,999847
0,822000	0,724640	3,301544
0,823000	0,785370	4,999847
0,824000	0,748901	4,999847
0,825000	0,769653	4,999847
0,826000	0,771179	4,999847
0,827000	0,755005	4,999847
0,828000	0,790405	4,870911
0,829000	0,707855	3,881073
0,830000	0,772247	3,784790
0,831000	0,698395	4,751434
0,832000	0,788574	4,563599
0,833000	0,689240	4,999847
0,834000	0,802002	4,999847
0,835000	0,695953	4,999847
0,836000	0,783844	4,999847
0,837000	0,720215	4,999847
0,838000	0,766602	4,999847
0,839000	0,743256	4,320831
0,840000	0,751953	4,002380
0,841000	0,763702	4,999847
0,842000	0,738983	4,290161
0,843000	0,782166	4,999847
0,844000	0,727234	4,999847
0,845000	0,799408	4,999847
0,846000	0,716858	4,999847
0,847000	0,815430	4,999847
0,848000	0,707397	4,693146
0,849000	0,818634	3,562317
0,850000	0,723724	4,763031
0,851000	0,800476	3,404388
0,852000	0,748291	4,999847
0,853000	0,783539	4,999847
0,854000	0,768890	4,999847
0,855000	0,768890	4,999847
0,856000	0,789032	4,999847
0,857000	0,755920	4,999847
0,858000	0,807037	4,909363
0,859000	0,744171	4,083252
0,860000	0,824738	3,499756
0,861000	0,733490	3,163605
0,862000	0,841522	3,839111
0,863000	0,724335	4,999847
0,864000	0,738068	4,999847
0,865000	0,744476	4,999847
0,866000	0,747528	4,999847
0,867000	0,835114	4,999847
0,868000	0,757141	4,999847
0,869000	0,840454	3,148193
0,870000	0,740662	3,136902
0,871000	0,853882	4,329987
0,872000	0,739899	4,999847
0,873000	0,837860	4,999847
0,874000	0,764160	4,999847
0,875000	0,820465	4,999847
0,876000	0,786438	4,999847
0,877000	0,804749	4,999847
0,878000	0,806427	4,999847
0,879000	0,790100	3,855133
0,880000	0,825958	3,570709
0,881000	0,776367	4,954071
0,882000	0,844879	3,547821
0,883000	0,764160	4,999847
0,884000	0,861053	4,999847
0,885000	0,746918	4,999847
0,886000	0,834351	4,999847
0,887000	0,747375	4,999847
0,888000	0,841217	4,999847
0,889000	0,783539	3,816681
0,890000	0,829926	2,973480
0,891000	0,808105	4,448700
0,892000	0,815125	4,757996
0,893000	0,829620	4,999847
0,894000	0,800018	4,999847
0,895000	0,848389	4,999847
0,896000	0,786438	4,999847
0,897000	0,865631	4,999847
0,898000	0,773621	4,999847
0,899000	0,879364	4,135284
0,900000	0,761566	3,146210
0,901000	0,871887	3,714752
0,902000	0,783844	3,765869
0,903000	0,852356	4,999847
0,904000	0,806427	4,999847
0,905000	0,834808	4,999847
0,906000	0,828094	4,999847
0,907000	0,818939	4,999847
0,908000	0,848236	4,451294
0,909000	0,804138	2,962189
0,910000	0,721436	2,714539
0,911000	0,683746	4,501190
0,912000	0,666504	4,999847
0,913000	0,658569	4,999847
0,914000	0,654602	4,999847
0,915000	0,652924	4,999847
0,916000	0,652161	4,999847
0,917000	0,651855	4,999847
0,918000	0,651245	4,624329
0,919000	0,651398	4,719238
0,920000	0,651703	2,649536
0,921000	0,651093	4,650726
0,922000	0,651703	3,565521
0,923000	0,650940	4,999847
0,924000	0,651245	4,999847
0,925000	0,650635	4,999847
0,926000	0,650635	4,999847
0,927000	0,650787	4,999847
0,928000	0,650940	4,999847
0,929000	0,650787	3,394165
0,930000	0,651093	3,494263
0,931000	0,527344	3,656616
0,932000	0,450134	4,513702
0,933000	0,433502	4,999847
0,934000	0,404816	4,999847
0,935000	0,413208	4,999847
0,936000	0,399475	4,999847
0,937000	0,407562	4,999847
0,938000	0,402069	4,903870
0,939000	0,405426	3,708038
0,940000	0,404816	4,317474
0,941000	0,403290	3,155212
0,942000	0,408325	3,597870
0,943000	0,401459	4,999847
0,944000	0,412140	4,999847
0,945000	0,400391	4,999847
0,946000	0,416107	4,999847
0,947000	0,399170	4,999847
0,948000	0,420074	4,808502
0,949000	0,399780	4,117126
0,950000	0,418091	3,164520
0,951000	0,405121	3,655396
0,952000	0,415497	4,414215
0,953000	0,410614	4,999847
0,954000	0,413361	4,999847
0,955000	0,415649	4,999847
0,956000	0,411682	4,999847
0,957000	0,420227	4,999847
0,958000	0,408783	4,999847
0,959000	0,424805	4,248505
0,960000	0,406952	3,413544
0,961000	0,429382	3,622437
0,962000	0,404510	4,014130
0,963000	0,431824	4,999847
0,964000	0,408325	4,999847
0,965000	0,428925	4,999847
0,966000	0,414734	4,999847
0,967000	0,424957	4,999847
0,968000	0,420685	4,458618
0,969000	0,421600	3,733521
0,970000	0,427094	3,483734
0,971000	0,418396	3,308716
0,972000	0,432739	4,999847
0,973000	0,415344	4,999847
0,974000	0,438385	4,999847
0,975000	0,412903	4,999847
0,976000	0,443878	4,999847
0,977000	0,410614	4,999847
0,978000	0,443420	4,999847
0,979000	0,418243	4,999847
0,980000	0,439148	2,999878
0,981000	0,425873	4,562073
0,982000	0,434875	3,839417
0,983000	0,433655	4,999847
0,984000	0,430603	4,999847
0,985000	0,440674	4,999847
0,986000	0,426636	4,999847
0,987000	0,447083	4,999847
0,988000	0,393372	4,241791
0,989000	0,413513	3,961029
0,990000	0,401917	4,255981
0,991000	0,451660	3,670502
0,992000	0,416412	4,999847
0,993000	0,453949	4,999847
0,994000	0,428925	4,999847
0,995000	0,449066	4,999847
0,996000	0,438538	4,999847
0,997000	0,444641	4,999847
0,998000	0,447235	4,717712
0,999000	0,439453	4,999847

