LabVIEW Measurement	
Writer_Version	2
Reader_Version	2
Separator	Tab
Decimal_Separator	,
Multi_Headings	Yes
X_Columns	One
Time_Pref	Absolute
Operator	d.nicolai
Date	2023/11/09
Time	16:04:05,6565121999996605588
***End_of_Header***	
	
Channels	2		
Samples	1000	1000	
Date	2023/11/09	2023/11/09	
Time	16:04:30,1335127999999313648	16:04:30,1335127999999313648	
Y_Unit_Label	Volts	Volts	
X_Dimension	Time	Time	
X0	0,0000000000000000E+0	0,0000000000000000E+0	
Delta_X	0,001000	0,001000	
***End_of_Header***			
X_Value	powebox	triggerbox	Comment
0,000000	0,536041	0,743103
0,001000	0,540009	4,032288
0,002000	0,543823	4,999847
0,003000	0,547180	4,999847
0,004000	0,544434	4,999847
0,005000	0,545807	4,999847
0,006000	0,542297	4,999847
0,007000	0,545807	4,999847
0,008000	0,545197	4,999847
0,009000	0,546722	3,735046
0,010000	0,545349	4,095154
0,011000	0,546722	4,005432
0,012000	0,548096	3,281403
0,013000	0,542297	4,999847
0,014000	0,539856	4,999847
0,015000	0,538025	4,999847
0,016000	0,536194	4,999847
0,017000	0,525055	4,999847
0,018000	0,518799	4,507904
0,019000	0,518494	3,527374
0,020000	0,522308	4,194946
0,021000	0,522156	4,766846
0,022000	0,525055	4,999847
0,023000	0,524292	4,999847
0,024000	0,523529	4,999847
0,025000	0,527802	4,999847
0,026000	0,532074	4,999847
0,027000	0,535431	4,999847
0,028000	0,539703	4,999847
0,029000	0,542297	3,676147
0,030000	0,541534	4,999847
0,031000	0,542145	4,082642
0,032000	0,542755	4,351807
0,033000	0,545502	4,999847
0,034000	0,546265	4,999847
0,035000	0,547485	4,999847
0,036000	0,547485	4,999847
0,037000	0,544281	4,999847
0,038000	0,545502	4,649811
0,039000	0,545959	2,721100
0,040000	0,547180	4,307861
0,041000	0,549316	4,800873
0,042000	0,550385	4,999847
0,043000	0,550995	4,999847
0,044000	0,555878	4,999847
0,045000	0,557861	4,999847
0,046000	0,561218	4,999847
0,047000	0,563812	4,999847
0,048000	0,563507	4,999847
0,049000	0,565643	4,179840
0,050000	0,563507	3,055573
0,051000	0,533905	2,869720
0,052000	0,535278	4,538727
0,053000	0,553131	4,999847
0,054000	0,560303	4,999847
0,055000	0,564270	4,999847
0,056000	0,568085	4,999847
0,057000	0,566254	4,999847
0,058000	0,571899	4,941406
0,059000	0,569153	3,477936
0,060000	0,575409	2,197876
0,061000	0,571289	4,999847
0,062000	0,576477	4,999847
0,063000	0,567780	4,999847
0,064000	0,576477	4,999847
0,065000	0,570068	4,999847
0,066000	0,576172	4,999847
0,067000	0,572815	4,999847
0,068000	0,576172	4,999847
0,069000	0,575104	3,636017
0,070000	0,574188	2,935486
0,071000	0,575104	4,599304
0,072000	0,569611	4,418335
0,073000	0,577850	4,999847
0,074000	0,568542	4,999847
0,075000	0,580902	4,999847
0,076000	0,570526	4,999847
0,077000	0,584259	4,999847
0,078000	0,570526	4,956970
0,079000	0,584412	3,285217
0,080000	0,572815	3,004456
0,081000	0,581512	4,771576
0,082000	0,578003	4,959717
0,083000	0,581207	4,999847
0,084000	0,581970	4,999847
0,085000	0,579987	4,999847
0,086000	0,588837	4,999847
0,087000	0,581207	4,999847
0,088000	0,594635	4,999847
0,089000	0,582275	3,921814
0,090000	0,599365	3,973236
0,091000	0,578461	3,295441
0,092000	0,600128	4,360504
0,093000	0,575104	4,999847
0,094000	0,592499	4,999847
0,095000	0,578613	4,999847
0,096000	0,586395	4,999847
0,097000	0,581360	4,999847
0,098000	0,584717	4,999847
0,099000	0,590210	3,076172
0,100000	0,584259	1,939850
0,101000	0,598755	4,999847
0,102000	0,586548	4,999847
0,103000	0,604095	4,999847
0,104000	0,587616	4,999847
0,105000	0,610657	4,999847
0,106000	0,582886	4,999847
0,107000	0,612030	4,999847
0,108000	0,580292	4,999847
0,109000	0,602264	4,168549
0,110000	0,586395	2,984314
0,111000	0,594788	4,304810
0,112000	0,592651	4,622955
0,113000	0,586395	4,999847
0,114000	0,596161	4,999847
0,115000	0,584564	4,999847
0,116000	0,607147	4,999847
0,117000	0,581970	4,999847
0,118000	0,612183	4,724579
0,119000	0,583954	3,463440
0,120000	0,619354	2,772980
0,121000	0,587158	4,999847
0,122000	0,621796	4,999847
0,123000	0,596924	4,999847
0,124000	0,614166	4,999847
0,125000	0,606384	4,999847
0,126000	0,611115	4,999847
0,127000	0,612335	4,999847
0,128000	0,608673	4,999847
0,129000	0,623169	4,231567
0,130000	0,603638	4,354858
0,131000	0,625763	4,999847
0,132000	0,598755	3,746796
0,133000	0,635223	4,999847
0,134000	0,594482	4,999847
0,135000	0,641327	4,999847
0,136000	0,593719	4,999847
0,137000	0,634613	4,999847
0,138000	0,613556	4,999847
0,139000	0,631866	3,186035
0,140000	0,622406	3,855896
0,141000	0,627594	4,554749
0,142000	0,633240	4,999847
0,143000	0,625305	4,999847
0,144000	0,641632	4,999847
0,145000	0,617981	4,999847
0,146000	0,647430	4,999847
0,147000	0,613098	4,999847
0,148000	0,652771	4,803009
0,149000	0,614777	3,706207
0,150000	0,660095	3,754425
0,151000	0,614777	3,068237
0,152000	0,643158	4,999847
0,153000	0,602112	4,999847
0,154000	0,591888	4,999847
0,155000	0,617828	4,999847
0,156000	0,627289	4,999847
0,157000	0,635376	4,971008
0,158000	0,614319	4,999847
0,159000	0,641632	3,273773
0,160000	0,608063	3,636017
0,161000	0,651398	4,625397
0,162000	0,581207	4,999847
0,163000	0,649261	4,999847
0,164000	0,601044	4,999847
0,165000	0,658722	4,999847
0,166000	0,619507	4,999847
0,167000	0,652161	4,999847
0,168000	0,633240	4,999847
0,169000	0,645447	4,161072
0,170000	0,645752	3,877563
0,171000	0,638885	3,280487
0,172000	0,657043	4,999847
0,173000	0,632782	4,999847
0,174000	0,666962	4,999847
0,175000	0,627899	4,999847
0,176000	0,676422	4,999847
0,177000	0,625916	4,999847
0,178000	0,686340	4,081421
0,179000	0,627289	3,098907
0,180000	0,679474	4,154663
0,181000	0,641022	3,634949
0,182000	0,669556	4,999847
0,183000	0,656433	4,999847
0,184000	0,661469	4,999847
0,185000	0,663757	4,999847
0,186000	0,654755	4,999847
0,187000	0,601807	4,999847
0,188000	0,575409	4,999847
0,189000	0,569153	4,391632
0,190000	0,635376	4,983215
0,191000	0,623932	4,474792
0,192000	0,672913	4,615936
0,193000	0,633392	4,999847
0,194000	0,691376	4,999847
0,195000	0,628357	4,999847
0,196000	0,700684	4,999847
0,197000	0,631409	4,999847
0,198000	0,692444	4,829407
0,199000	0,647278	3,501129
0,200000	0,674591	2,690277
0,201000	0,656586	4,916077
0,202000	0,665436	4,999847
0,203000	0,671539	4,999847
0,204000	0,654449	4,999847
0,205000	0,682220	4,999847
0,206000	0,646362	4,999847
0,207000	0,695038	4,999847
0,208000	0,630951	4,999847
0,209000	0,700378	4,403992
0,210000	0,622406	4,282227
0,211000	0,708313	3,465271
0,212000	0,635681	4,985046
0,213000	0,694275	4,999847
0,214000	0,651398	4,999847
0,215000	0,679016	4,999847
0,216000	0,667572	4,999847
0,217000	0,670013	4,999847
0,218000	0,683136	4,448547
0,219000	0,657654	3,218536
0,220000	0,697021	3,476715
0,221000	0,643311	4,999847
0,222000	0,705719	4,999847
0,223000	0,631866	4,999847
0,224000	0,715637	4,999847
0,225000	0,627289	4,999847
0,226000	0,717926	4,999847
0,227000	0,648499	4,999847
0,228000	0,702209	4,999847
0,229000	0,665283	3,454742
0,230000	0,685577	4,040985
0,231000	0,677795	4,828339
0,232000	0,666199	4,999847
0,233000	0,693207	4,999847
0,234000	0,653992	4,999847
0,235000	0,707397	4,999847
0,236000	0,645294	4,999847
0,237000	0,721741	4,999847
0,238000	0,634918	4,999847
0,239000	0,733795	3,212585
0,240000	0,636444	2,653961
0,241000	0,722198	4,999847
0,242000	0,655365	4,999847
0,243000	0,703278	4,999847
0,244000	0,676117	4,999847
0,245000	0,692139	4,999847
0,246000	0,696716	4,999847
0,247000	0,680084	4,977417
0,248000	0,713654	4,999847
0,249000	0,666504	3,708038
0,250000	0,727081	3,719177
0,251000	0,653076	3,850098
0,252000	0,740509	4,568176
0,253000	0,644073	4,999847
0,254000	0,753174	4,999847
0,255000	0,659485	4,999847
0,256000	0,700378	4,999847
0,257000	0,658112	4,999847
0,258000	0,705719	4,816895
0,259000	0,691376	3,113098
0,260000	0,696411	3,614960
0,261000	0,712128	4,999847
0,262000	0,682983	4,999847
0,263000	0,727692	4,999847
0,264000	0,668488	4,999847
0,265000	0,742340	4,999847
0,266000	0,657501	4,999847
0,267000	0,756073	4,999847
0,268000	0,652618	4,765472
0,269000	0,762787	3,951263
0,270000	0,674744	4,810638
0,271000	0,742035	4,583130
0,272000	0,695953	4,291077
0,273000	0,724945	4,999847
0,274000	0,716248	4,999847
0,275000	0,711517	4,999847
0,276000	0,735016	4,999847
0,277000	0,697174	4,999847
0,278000	0,751648	4,999847
0,279000	0,686340	2,866364
0,280000	0,767517	2,896576
0,281000	0,675812	4,555206
0,282000	0,781860	4,999847
0,283000	0,679321	4,999847
0,284000	0,773773	4,999847
0,285000	0,699463	4,999847
0,286000	0,757141	4,999847
0,287000	0,721588	4,999847
0,288000	0,739594	4,999847
0,289000	0,740356	3,310852
0,290000	0,722809	4,062958
0,291000	0,757294	4,481964
0,292000	0,711517	4,235077
0,293000	0,773773	4,999847
0,294000	0,701599	4,999847
0,295000	0,790558	4,999847
0,296000	0,688171	4,999847
0,297000	0,802307	4,999847
0,298000	0,701752	4,672241
0,299000	0,792389	2,507172
0,300000	0,726929	3,571625
0,301000	0,776520	4,818420
0,302000	0,746613	4,999847
0,303000	0,759125	4,999847
0,304000	0,764771	4,999847
0,305000	0,745697	4,999847
0,306000	0,783081	4,999847
0,307000	0,731354	4,999847
0,308000	0,799713	4,999847
0,309000	0,719604	3,944244
0,310000	0,815582	4,419708
0,311000	0,710602	3,696899
0,312000	0,828705	4,153900
0,313000	0,735168	4,999847
0,314000	0,814819	4,999847
0,315000	0,755768	4,999847
0,316000	0,798492	4,999847
0,317000	0,776520	4,714050
0,318000	0,781403	4,999847
0,319000	0,794525	2,929687
0,320000	0,765839	2,478485
0,321000	0,811920	4,999847
0,322000	0,752258	4,999847
0,323000	0,828552	4,999847
0,324000	0,738373	4,999847
0,325000	0,840759	4,999847
0,326000	0,736847	4,999847
0,327000	0,844727	4,999847
0,328000	0,758667	4,999847
0,329000	0,826874	2,926941
0,330000	0,780029	2,728882
0,331000	0,806580	3,795624
0,332000	0,798035	4,719238
0,333000	0,785675	4,999847
0,334000	0,813904	4,999847
0,335000	0,774994	4,999847
0,336000	0,832367	4,999847
0,337000	0,763702	4,999847
0,338000	0,846100	4,937592
0,339000	0,751343	3,416901
0,340000	0,853119	1,925507
0,341000	0,758820	4,999847
0,342000	0,849915	4,999847
0,343000	0,778198	4,999847
0,344000	0,826111	4,999847
0,345000	0,795746	4,999847
0,346000	0,806732	4,999847
0,347000	0,814514	4,999847
0,348000	0,793457	4,999847
0,349000	0,833130	4,056091
0,350000	0,776215	4,999847
0,351000	0,845032	3,463440
0,352000	0,761719	3,971863
0,353000	0,852966	4,999847
0,354000	0,749664	4,999847
0,355000	0,855560	4,999847
0,356000	0,739441	4,999847
0,357000	0,675354	4,999847
0,358000	0,632172	4,806213
0,359000	0,607758	2,836914
0,360000	0,615234	3,544769
0,361000	0,617676	4,954529
0,362000	0,619965	4,999847
0,363000	0,620728	4,999847
0,364000	0,620575	4,999847
0,365000	0,620575	4,999847
0,366000	0,620575	4,999847
0,367000	0,620575	4,999847
0,368000	0,620270	4,999847
0,369000	0,619965	3,726349
0,370000	0,619812	4,839630
0,371000	0,619965	3,843384
0,372000	0,620880	4,656219
0,373000	0,620270	4,999847
0,374000	0,619965	4,999847
0,375000	0,619659	4,999847
0,376000	0,619507	4,999847
0,377000	0,604553	4,999847
0,378000	0,536041	4,999847
0,379000	0,503082	2,858429
0,380000	0,495453	3,265228
0,381000	0,495758	4,697113
0,382000	0,495605	4,999847
0,383000	0,494843	4,999847
0,384000	0,496368	4,999847
0,385000	0,498352	4,999847
0,386000	0,500641	4,999847
0,387000	0,505219	4,999847
0,388000	0,511627	4,999847
0,389000	0,517273	3,683777
0,390000	0,524445	1,808319
0,391000	0,526428	3,810883
0,392000	0,529938	3,782654
0,393000	0,529785	4,999847
0,394000	0,530548	4,999847
0,395000	0,530853	4,999847
0,396000	0,532684	4,999847
0,397000	0,534821	4,999847
0,398000	0,535126	4,183960
0,399000	0,537872	2,902374
0,400000	0,536041	1,823120
0,401000	0,536194	4,999847
0,402000	0,534668	4,999847
0,403000	0,534515	4,999847
0,404000	0,534668	4,999847
0,405000	0,535278	4,999847
0,406000	0,531464	4,999847
0,407000	0,531769	4,999847
0,408000	0,530396	4,999847
0,409000	0,533447	3,265839
0,410000	0,535583	4,387970
0,411000	0,539703	4,732056
0,412000	0,541992	4,431610
0,413000	0,539246	4,999847
0,414000	0,541382	4,999847
0,415000	0,541077	4,999847
0,416000	0,542450	4,999847
0,417000	0,541687	4,943237
0,418000	0,542450	3,981018
0,419000	0,537720	3,016052
0,420000	0,536346	3,208313
0,421000	0,527802	4,943848
0,422000	0,514069	4,999847
0,423000	0,503387	4,999847
0,424000	0,500641	4,999847
0,425000	0,494385	4,999847
0,426000	0,497894	4,999847
0,427000	0,495758	4,999847
0,428000	0,504913	4,918518
0,429000	0,517120	3,347931
0,430000	0,516510	3,825836
0,431000	0,514984	3,990631
0,432000	0,525360	3,941040
0,433000	0,536957	4,999847
0,434000	0,545502	4,999847
0,435000	0,556335	4,999847
0,436000	0,560760	4,999847
0,437000	0,562897	4,999847
0,438000	0,559998	4,999847
0,439000	0,561981	3,144073
0,440000	0,559540	2,900391
0,441000	0,558014	4,300232
0,442000	0,561981	4,999847
0,443000	0,563202	4,999847
0,444000	0,567169	4,999847
0,445000	0,563507	4,999847
0,446000	0,565491	4,999847
0,447000	0,562134	4,999847
0,448000	0,565491	4,999847
0,449000	0,563202	3,675385
0,450000	0,565948	4,668579
0,451000	0,562744	3,248291
0,452000	0,564728	4,170685
0,453000	0,563354	4,999847
0,454000	0,565643	4,999847
0,455000	0,563507	4,999847
0,456000	0,556946	4,999847
0,457000	0,560455	4,999847
0,458000	0,563049	4,443207
0,459000	0,561829	2,612152
0,460000	0,559235	4,008026
0,461000	0,513763	4,999847
0,462000	0,510406	4,999847
0,463000	0,535583	4,999847
0,464000	0,545197	4,999847
0,465000	0,551147	4,999847
0,466000	0,552216	4,999847
0,467000	0,554504	4,999847
0,468000	0,557404	4,653015
0,469000	0,558929	3,297729
0,470000	0,558014	3,276672
0,471000	0,558167	3,890839
0,472000	0,561523	4,999847
0,473000	0,566711	4,999847
0,474000	0,568237	4,999847
0,475000	0,569153	4,999847
0,476000	0,567627	4,999847
0,477000	0,568390	4,999847
0,478000	0,566406	4,924622
0,479000	0,569611	3,451843
0,480000	0,568542	4,022064
0,481000	0,573273	4,999847
0,482000	0,574951	4,999847
0,483000	0,575867	4,999847
0,484000	0,575256	4,999847
0,485000	0,575562	4,999847
0,486000	0,576935	4,999847
0,487000	0,574951	4,999847
0,488000	0,576782	4,999847
0,489000	0,576935	4,321442
0,490000	0,579834	4,122772
0,491000	0,575104	4,472351
0,492000	0,579987	4,474030
0,493000	0,573273	4,999847
0,494000	0,581055	4,999847
0,495000	0,575256	4,999847
0,496000	0,579224	4,999847
0,497000	0,579071	4,999847
0,498000	0,579376	4,859467
0,499000	0,579834	3,516846
0,500000	0,580597	2,456818
0,501000	0,584259	4,999847
0,502000	0,581360	4,999847
0,503000	0,586700	4,999847
0,504000	0,577087	4,999847
0,505000	0,587311	4,999847
0,506000	0,573273	4,999847
0,507000	0,587921	4,999847
0,508000	0,576935	4,999847
0,509000	0,588226	3,562775
0,510000	0,580902	4,295044
0,511000	0,587616	4,615479
0,512000	0,584869	4,999847
0,513000	0,586700	4,999847
0,514000	0,589600	4,999847
0,515000	0,585327	4,999847
0,516000	0,591888	4,999847
0,517000	0,581207	4,999847
0,518000	0,595093	4,999847
0,519000	0,582581	3,490448
0,520000	0,602112	3,168793
0,521000	0,579681	4,999847
0,522000	0,601349	4,999847
0,523000	0,571442	4,999847
0,524000	0,590515	4,999847
0,525000	0,578156	4,999847
0,526000	0,589447	4,999847
0,527000	0,589142	4,999847
0,528000	0,588531	4,999847
0,529000	0,597076	4,323730
0,530000	0,589752	4,485779
0,531000	0,604706	4,907227
0,532000	0,585785	4,999847
0,533000	0,608215	4,999847
0,534000	0,562439	4,999847
0,535000	0,602264	4,999847
0,536000	0,574799	4,999847
0,537000	0,608673	4,999847
0,538000	0,588074	4,061432
0,539000	0,606384	3,195190
0,540000	0,594330	3,049316
0,541000	0,598907	4,999847
0,542000	0,597229	4,999847
0,543000	0,590820	4,999847
0,544000	0,604095	4,999847
0,545000	0,588226	4,999847
0,546000	0,612640	4,999847
0,547000	0,587006	4,999847
0,548000	0,619354	4,439697
0,549000	0,585022	3,200378
0,550000	0,626831	4,226074
0,551000	0,581818	4,299011
0,552000	0,619354	4,999847
0,553000	0,597382	4,999847
0,554000	0,617981	4,999847
0,555000	0,609741	4,999847
0,556000	0,614471	4,999847
0,557000	0,618744	4,999847
0,558000	0,604553	4,424896
0,559000	0,622711	3,225098
0,560000	0,602570	2,979736
0,561000	0,631866	4,999847
0,562000	0,605011	4,999847
0,563000	0,610352	4,999847
0,564000	0,572662	4,999847
0,565000	0,634308	4,999847
0,566000	0,607147	4,999847
0,567000	0,640717	4,907837
0,568000	0,622253	4,999847
0,569000	0,636902	3,976135
0,570000	0,631866	3,943939
0,571000	0,632935	4,799042
0,572000	0,639954	4,999847
0,573000	0,626526	4,999847
0,574000	0,647430	4,999847
0,575000	0,622253	4,999847
0,576000	0,655670	4,999847
0,577000	0,616302	4,999847
0,578000	0,661774	4,387665
0,579000	0,613708	3,026123
0,580000	0,662079	3,995514
0,581000	0,621033	4,999847
0,582000	0,651550	4,999847
0,583000	0,634766	4,999847
0,584000	0,646515	4,999847
0,585000	0,643005	4,999847
0,586000	0,637054	4,999847
0,587000	0,619965	4,999847
0,588000	0,604858	4,999847
0,589000	0,632477	3,801422
0,590000	0,606995	4,595184
0,591000	0,645142	4,273682
0,592000	0,605316	4,999847
0,593000	0,653992	4,999847
0,594000	0,614929	4,999847
0,595000	0,660400	4,999847
0,596000	0,650177	4,999847
0,597000	0,674133	4,999847
0,598000	0,659027	4,889374
0,599000	0,665894	3,286285
0,600000	0,668793	2,788696
0,601000	0,659485	4,919891
0,602000	0,678406	4,999847
0,603000	0,653076	4,999847
0,604000	0,685883	4,999847
0,605000	0,646515	4,999847
0,606000	0,693512	4,999847
0,607000	0,643311	4,999847
0,608000	0,701141	4,914246
0,609000	0,646362	3,228760
0,610000	0,689545	4,577637
0,611000	0,658112	3,864594
0,612000	0,677948	3,844452
0,613000	0,667267	4,999847
0,614000	0,668182	4,999847
0,615000	0,676727	4,999847
0,616000	0,652313	4,999847
0,617000	0,681000	4,999847
0,618000	0,639954	4,512634
0,619000	0,690613	3,116913
0,620000	0,635223	2,632294
0,621000	0,702362	4,633942
0,622000	0,610352	4,999847
0,623000	0,698853	4,999847
0,624000	0,634155	4,999847
0,625000	0,607147	4,999847
0,626000	0,597076	4,999847
0,627000	0,589294	4,999847
0,628000	0,623474	4,722137
0,629000	0,666809	3,281403
0,630000	0,675659	3,533020
0,631000	0,678406	3,854218
0,632000	0,697327	4,128876
0,633000	0,673370	4,999847
0,634000	0,708466	4,999847
0,635000	0,654602	4,999847
0,636000	0,710754	4,999847
0,637000	0,650482	4,974060
0,638000	0,724335	4,800720
0,639000	0,652924	3,064270
0,640000	0,722961	3,152313
0,641000	0,668335	4,999847
0,642000	0,709381	4,999847
0,643000	0,683289	4,999847
0,644000	0,693512	4,999847
0,645000	0,693970	4,999847
0,646000	0,682526	4,999847
0,647000	0,704956	4,999847
0,648000	0,670166	4,999847
0,649000	0,718842	3,430023
0,650000	0,665741	3,730316
0,651000	0,731659	4,562378
0,652000	0,645142	4,999847
0,653000	0,736237	4,999847
0,654000	0,617065	4,999847
0,655000	0,685577	4,999847
0,656000	0,641785	4,999847
0,657000	0,676117	4,999847
0,658000	0,657654	4,999847
0,659000	0,667877	2,930298
0,660000	0,678558	1,998444
0,661000	0,663300	4,999847
0,662000	0,691681	4,999847
0,663000	0,653534	4,999847
0,664000	0,706329	4,999847
0,665000	0,626678	4,999847
0,666000	0,666809	4,999847
0,667000	0,596161	4,999847
0,668000	0,707245	4,999847
0,669000	0,640869	3,350983
0,670000	0,704346	3,938599
0,671000	0,659637	4,435272
0,672000	0,688019	4,946289
0,673000	0,675201	4,999847
0,674000	0,675812	4,999847
0,675000	0,692902	4,999847
0,676000	0,664673	4,999847
0,677000	0,706787	4,797668
0,678000	0,653687	4,241028
0,679000	0,720520	2,771301
0,680000	0,643463	3,922577
0,681000	0,732880	4,999847
0,682000	0,640564	4,999847
0,683000	0,733032	4,999847
0,684000	0,659332	4,999847
0,685000	0,715485	4,999847
0,686000	0,677490	4,999847
0,687000	0,697479	4,999847
0,688000	0,691528	4,928284
0,689000	0,679321	3,708038
0,690000	0,707550	4,999847
0,691000	0,663147	3,652039
0,692000	0,720978	4,386139
0,693000	0,659637	4,999847
0,694000	0,740509	4,999847
0,695000	0,646210	4,999847
0,696000	0,751495	4,999847
0,697000	0,653687	4,999847
0,698000	0,736847	4,689941
0,699000	0,671844	3,072357
0,700000	0,720978	2,225494
0,701000	0,692596	4,999847
0,702000	0,702820	4,999847
0,703000	0,710449	4,999847
0,704000	0,687256	4,999847
0,705000	0,727081	4,999847
0,706000	0,676727	4,999847
0,707000	0,743561	4,999847
0,708000	0,665588	4,999847
0,709000	0,758057	3,508301
0,710000	0,652924	3,457336
0,711000	0,766144	4,790955
0,712000	0,671844	4,999847
0,713000	0,742493	4,999847
0,714000	0,692596	4,999847
0,715000	0,729065	4,999847
0,716000	0,713959	4,999847
0,717000	0,716400	4,999847
0,718000	0,734100	4,999847
0,719000	0,702362	2,737732
0,720000	0,750885	2,687073
0,721000	0,690918	4,999847
0,722000	0,767670	4,999847
0,723000	0,682678	4,999847
0,724000	0,783234	4,999847
0,725000	0,677338	4,999847
0,726000	0,790863	4,999847
0,727000	0,703430	4,999847
0,728000	0,774078	4,451294
0,729000	0,725250	3,254089
0,730000	0,755005	4,999847
0,731000	0,744324	3,578339
0,732000	0,737000	4,553986
0,733000	0,760803	4,999847
0,734000	0,726624	4,999847
0,735000	0,778961	4,999847
0,736000	0,713348	4,999847
0,737000	0,793457	4,999847
0,738000	0,700836	4,909210
0,739000	0,808258	2,637482
0,740000	0,709686	2,407074
0,741000	0,812683	4,999847
0,742000	0,732117	4,999847
0,743000	0,791168	4,999847
0,744000	0,750580	4,999847
0,745000	0,774384	4,999847
0,746000	0,769043	4,999847
0,747000	0,754700	4,999847
0,748000	0,784607	4,999847
0,749000	0,738068	3,032837
0,750000	0,800476	4,169464
0,751000	0,724487	3,678436
0,752000	0,816040	4,999847
0,753000	0,713043	4,999847
0,754000	0,831299	4,999847
0,755000	0,738678	4,999847
0,756000	0,830383	4,999847
0,757000	0,759735	4,999847
0,758000	0,795441	4,726105
0,759000	0,770416	2,294922
0,760000	0,768433	4,690094
0,761000	0,783081	4,769592
0,762000	0,757904	4,999847
0,763000	0,804291	4,999847
0,764000	0,750580	4,999847
0,765000	0,824890	4,999847
0,766000	0,738678	4,999847
0,767000	0,839081	4,999847
0,768000	0,703278	4,568024
0,769000	0,818176	3,997650
0,770000	0,740814	4,999847
0,771000	0,821381	2,391663
0,772000	0,772247	4,999847
0,773000	0,808258	4,999847
0,774000	0,794525	4,999847
0,775000	0,790710	4,999847
0,776000	0,812073	4,999847
0,777000	0,777283	4,999847
0,778000	0,829468	4,120941
0,779000	0,765839	3,044281
0,780000	0,844269	3,646698
0,781000	0,749512	4,745026
0,782000	0,852051	4,999847
0,783000	0,753784	4,999847
0,784000	0,848846	4,999847
0,785000	0,772247	4,999847
0,786000	0,825043	4,999847
0,787000	0,790558	4,999847
0,788000	0,809021	4,656067
0,789000	0,811768	3,739319
0,790000	0,792389	4,127197
0,791000	0,829010	4,263763
0,792000	0,778198	4,999847
0,793000	0,843658	4,999847
0,794000	0,761261	4,999847
0,795000	0,685577	4,999847
0,796000	0,650787	4,999847
0,797000	0,634918	4,999847
0,798000	0,627899	4,783936
0,799000	0,624542	2,665558
0,800000	0,622559	3,231354
0,801000	0,621948	4,999847
0,802000	0,621643	4,999847
0,803000	0,621643	4,999847
0,804000	0,621490	4,999847
0,805000	0,621185	4,999847
0,806000	0,620575	4,999847
0,807000	0,620422	4,999847
0,808000	0,620422	4,999847
0,809000	0,620880	3,239899
0,810000	0,620728	3,291626
0,811000	0,620880	3,358307
0,812000	0,621338	4,999847
0,813000	0,622253	4,999847
0,814000	0,622406	4,999847
0,815000	0,560455	4,999847
0,816000	0,497742	4,999847
0,817000	0,474396	4,999847
0,818000	0,461731	4,519348
0,819000	0,458374	3,308716
0,820000	0,461884	2,788086
0,821000	0,457764	4,916840
0,822000	0,454559	4,999847
0,823000	0,456696	4,999847
0,824000	0,451965	4,999847
0,825000	0,448608	4,999847
0,826000	0,451660	4,999847
0,827000	0,457611	4,999847
0,828000	0,455933	4,534302
0,829000	0,458221	3,910828
0,830000	0,466309	4,048309
0,831000	0,465698	4,619141
0,832000	0,458984	4,999847
0,833000	0,457458	4,999847
0,834000	0,462036	4,999847
0,835000	0,466766	4,999847
0,836000	0,468445	4,999847
0,837000	0,469971	4,999847
0,838000	0,468292	4,999847
0,839000	0,468140	2,911682
0,840000	0,465851	4,686279
0,841000	0,467682	4,900208
0,842000	0,475464	4,999847
0,843000	0,481873	4,999847
0,844000	0,476837	4,999847
0,845000	0,478210	4,999847
0,846000	0,485077	4,999847
0,847000	0,489044	4,999847
0,848000	0,495911	4,844055
0,849000	0,489807	3,893890
0,850000	0,492249	3,886108
0,851000	0,492249	3,942261
0,852000	0,496826	4,999847
0,853000	0,495758	4,999847
0,854000	0,492859	4,999847
0,855000	0,491333	4,999847
0,856000	0,494080	4,999847
0,857000	0,495605	4,999847
0,858000	0,497131	4,405365
0,859000	0,499115	3,551636
0,860000	0,498962	2,891541
0,861000	0,500793	4,999847
0,862000	0,498047	4,999847
0,863000	0,498199	4,999847
0,864000	0,496826	4,999847
0,865000	0,502167	4,999847
0,866000	0,498199	4,999847
0,867000	0,503387	4,602203
0,868000	0,502472	4,673157
0,869000	0,506287	3,706512
0,870000	0,484619	4,653473
0,871000	0,483398	4,447327
0,872000	0,500031	4,999847
0,873000	0,506592	4,999847
0,874000	0,514832	4,999847
0,875000	0,511475	4,999847
0,876000	0,512848	4,999847
0,877000	0,514221	4,999847
0,878000	0,513458	4,999847
0,879000	0,511627	2,914734
0,880000	0,512085	2,957611
0,881000	0,509796	4,999847
0,882000	0,502472	4,999847
0,883000	0,501556	4,999847
0,884000	0,513763	4,999847
0,885000	0,514832	4,999847
0,886000	0,509186	4,999847
0,887000	0,514679	4,999847
0,888000	0,515900	4,601288
0,889000	0,514221	4,019165
0,890000	0,517273	3,681488
0,891000	0,510406	4,429626
0,892000	0,507355	4,999847
0,893000	0,513763	4,999847
0,894000	0,514679	4,999847
0,895000	0,514832	4,999847
0,896000	0,517120	4,999847
0,897000	0,514984	4,384766
0,898000	0,518951	4,999847
0,899000	0,518799	2,705994
0,900000	0,522308	2,820435
0,901000	0,537415	4,999847
0,902000	0,541534	4,999847
0,903000	0,543213	4,999847
0,904000	0,559998	4,999847
0,905000	0,594482	4,999847
0,906000	0,597992	4,999847
0,907000	0,602112	4,999847
0,908000	0,603180	4,999847
0,909000	0,612946	3,294220
0,910000	0,613708	4,255676
0,911000	0,622406	4,999847
0,912000	0,621948	4,999847
0,913000	0,622253	4,999847
0,914000	0,620728	4,999847
0,915000	0,624084	4,999847
0,916000	0,622711	4,999847
0,917000	0,618591	4,999847
0,918000	0,620728	4,583893
0,919000	0,618896	2,999878
0,920000	0,624237	3,006897
0,921000	0,619965	4,999847
0,922000	0,625153	4,999847
0,923000	0,620270	4,999847
0,924000	0,625458	4,999847
0,925000	0,618439	4,999847
0,926000	0,624542	4,999847
0,927000	0,619659	4,785309
0,928000	0,621948	4,999847
0,929000	0,619659	3,549957
0,930000	0,619812	4,501190
0,931000	0,618744	3,829498
0,932000	0,619965	4,911652
0,933000	0,619049	4,999847
0,934000	0,619049	4,999847
0,935000	0,622711	4,999847
0,936000	0,616913	4,999847
0,937000	0,620728	4,999847
0,938000	0,612030	3,979034
0,939000	0,617523	2,622528
0,940000	0,611877	3,128357
0,941000	0,587769	4,999847
0,942000	0,588837	4,999847
0,943000	0,597992	4,999847
0,944000	0,596313	4,999847
0,945000	0,600891	4,999847
0,946000	0,605469	4,999847
0,947000	0,601654	4,999847
0,948000	0,606995	4,999847
0,949000	0,604706	3,094635
0,950000	0,612488	4,263153
0,951000	0,608826	4,193268
0,952000	0,634613	4,999847
0,953000	0,647430	4,999847
0,954000	0,677490	4,999847
0,955000	0,676727	4,999847
0,956000	0,693359	4,999847
0,957000	0,685577	4,999847
0,958000	0,688934	3,997192
0,959000	0,681915	2,355499
0,960000	0,674438	4,197540
0,961000	0,672913	4,999847
0,962000	0,669098	4,999847
0,963000	0,673370	4,999847
0,964000	0,664825	4,999847
0,965000	0,674896	4,999847
0,966000	0,667877	4,999847
0,967000	0,680389	4,999847
0,968000	0,657196	4,999847
0,969000	0,669098	2,942200
0,970000	0,660858	4,999847
0,971000	0,682526	4,408417
0,972000	0,684204	4,829865
0,973000	0,647278	4,999847
0,974000	0,666046	4,999847
0,975000	0,675507	4,999847
0,976000	0,680847	4,999847
0,977000	0,676575	4,999847
0,978000	0,687408	4,145203
0,979000	0,676117	2,645569
0,980000	0,688171	4,240265
0,981000	0,677490	4,999847
0,982000	0,693970	4,999847
0,983000	0,671844	4,999847
0,984000	0,686340	4,999847
0,985000	0,666809	4,999847
0,986000	0,675964	4,999847
0,987000	0,671692	4,986572
0,988000	0,673523	4,823151
0,989000	0,675354	3,490753
0,990000	0,667419	4,193268
0,991000	0,672150	4,076691
0,992000	0,657501	4,999847
0,993000	0,676727	4,999847
0,994000	0,665131	4,999847
0,995000	0,685425	4,999847
0,996000	0,663300	4,999847
0,997000	0,685577	4,999847
0,998000	0,662079	4,979858
0,999000	0,677032	2,960358

