LabVIEW Measurement	
Writer_Version	2
Reader_Version	2
Separator	Tab
Decimal_Separator	,
Multi_Headings	Yes
X_Columns	One
Time_Pref	Absolute
Operator	d.nicolai
Date	2023/11/09
Time	16:04:05,6565121999996605588
***End_of_Header***	
	
Channels	2		
Samples	1000	1000	
Date	2023/11/09	2023/11/09	
Time	16:04:18,4285125999997786157	16:04:18,4285125999997786157	
Y_Unit_Label	Volts	Volts	
X_Dimension	Time	Time	
X0	0,0000000000000000E+0	0,0000000000000000E+0	
Delta_X	0,001000	0,001000	
***End_of_Header***			
X_Value	powebox	triggerbox	Comment
0,000000	0,497437	1,080780
0,001000	0,590363	4,150848
0,002000	0,501556	4,381866
0,003000	0,574799	4,999847
0,004000	0,519104	4,999847
0,005000	0,559235	4,999847
0,006000	0,538940	4,999847
0,007000	0,546570	4,999847
0,008000	0,555725	3,707886
0,009000	0,534515	3,367004
0,010000	0,571289	3,455963
0,011000	0,524292	3,228760
0,012000	0,585632	4,999847
0,013000	0,514374	4,999847
0,014000	0,598297	4,999847
0,015000	0,505829	4,999847
0,016000	0,602112	4,999847
0,017000	0,519714	4,999847
0,018000	0,585327	4,999847
0,019000	0,539856	3,977051
0,020000	0,570374	4,590607
0,021000	0,558929	4,012909
0,022000	0,556488	3,900909
0,023000	0,575867	4,803619
0,024000	0,544891	4,999847
0,025000	0,591888	4,999847
0,026000	0,534363	4,999847
0,027000	0,606079	4,999847
0,028000	0,524597	4,197845
0,029000	0,619965	2,974701
0,030000	0,517883	4,712372
0,031000	0,613556	3,599396
0,032000	0,540009	4,999847
0,033000	0,597229	4,999847
0,034000	0,560455	4,999847
0,035000	0,581512	4,999847
0,036000	0,579681	4,999847
0,037000	0,567932	4,999847
0,038000	0,596771	4,999847
0,039000	0,556030	4,041595
0,040000	0,613251	4,172668
0,041000	0,545197	3,747253
0,042000	0,628052	4,846039
0,043000	0,535889	4,999847
0,044000	0,641937	4,999847
0,045000	0,538788	4,999847
0,046000	0,622711	4,999847
0,047000	0,560608	4,999847
0,048000	0,608368	4,146423
0,049000	0,582886	3,520966
0,050000	0,593719	3,342743
0,051000	0,602264	4,238434
0,052000	0,579834	4,632263
0,053000	0,619659	4,999847
0,054000	0,568085	4,999847
0,055000	0,636139	4,999847
0,056000	0,558014	4,999847
0,057000	0,651398	4,999847
0,058000	0,549316	4,883881
0,059000	0,657196	4,658508
0,060000	0,562744	4,028015
0,061000	0,638428	3,219604
0,062000	0,586243	4,033508
0,063000	0,622101	4,999847
0,064000	0,606689	4,999847
0,065000	0,607452	4,999847
0,066000	0,626526	4,999847
0,067000	0,594635	4,999847
0,068000	0,644073	3,993683
0,069000	0,583038	3,368225
0,070000	0,660553	3,749084
0,071000	0,572815	3,355560
0,072000	0,673065	4,999847
0,073000	0,562744	4,999847
0,074000	0,670319	4,999847
0,075000	0,588074	4,999847
0,076000	0,652771	4,999847
0,077000	0,611725	4,999847
0,078000	0,636749	4,999847
0,079000	0,632782	4,252625
0,080000	0,622406	3,689880
0,081000	0,652161	3,404846
0,082000	0,609589	3,706055
0,083000	0,659332	4,999847
0,084000	0,569458	4,999847
0,085000	0,673065	4,999847
0,086000	0,583038	4,999847
0,087000	0,698242	4,999847
0,088000	0,589447	4,999847
0,089000	0,684509	3,226166
0,090000	0,615082	4,059753
0,091000	0,667877	3,575745
0,092000	0,638428	4,999847
0,093000	0,652161	4,999847
0,094000	0,659332	4,999847
0,095000	0,638428	4,999847
0,096000	0,678558	4,999847
0,097000	0,626526	4,999847
0,098000	0,695801	4,999847
0,099000	0,615845	4,548950
0,100000	0,711975	3,945312
0,101000	0,606537	3,430786
0,102000	0,720062	3,932037
0,103000	0,618439	4,539642
0,104000	0,700226	4,999847
0,105000	0,643616	4,999847
0,106000	0,683136	4,999847
0,107000	0,665741	4,999847
0,108000	0,668488	4,052887
0,109000	0,686340	3,149567
0,110000	0,655060	2,915039
0,111000	0,704803	3,471069
0,112000	0,643616	4,999847
0,113000	0,722198	4,941406
0,114000	0,633392	4,999847
0,115000	0,735321	4,999847
0,116000	0,622253	4,999847
0,117000	0,733795	4,999847
0,118000	0,647430	4,999847
0,119000	0,715637	3,466644
0,120000	0,671539	3,813171
0,121000	0,699615	2,682953
0,122000	0,693512	3,698883
0,123000	0,685425	4,999847
0,124000	0,713959	4,999847
0,125000	0,672455	4,999847
0,126000	0,732117	4,999847
0,127000	0,661163	4,999847
0,128000	0,749054	4,739380
0,129000	0,651398	3,522491
0,130000	0,764160	3,184204
0,131000	0,650482	4,952240
0,132000	0,749817	4,486084
0,133000	0,675507	4,999847
0,134000	0,731049	4,999847
0,135000	0,699310	4,999847
0,136000	0,715790	4,999847
0,137000	0,720673	4,999847
0,138000	0,702057	4,999847
0,139000	0,741119	3,829651
0,140000	0,689850	4,644165
0,141000	0,759277	3,979187
0,142000	0,676422	4,269867
0,143000	0,773773	4,999847
0,144000	0,669403	4,999847
0,145000	0,785065	4,999847
0,146000	0,679626	4,999847
0,147000	0,765381	4,999847
0,148000	0,705261	4,999847
0,149000	0,748291	3,011627
0,150000	0,727844	3,297729
0,151000	0,733185	3,639221
0,152000	0,748749	4,625702
0,153000	0,719604	4,999847
0,154000	0,767822	4,999847
0,155000	0,707703	4,999847
0,156000	0,785675	4,999847
0,157000	0,696869	4,999847
0,158000	0,801697	4,871063
0,159000	0,687561	4,362946
0,160000	0,799713	4,249115
0,161000	0,708466	3,572235
0,162000	0,780792	4,054413
0,163000	0,732422	4,806976
0,164000	0,764008	4,999847
0,165000	0,755310	4,999847
0,166000	0,749207	4,999847
0,167000	0,775909	4,999847
0,168000	0,735931	4,574432
0,169000	0,794220	3,339539
0,170000	0,723877	3,422546
0,171000	0,811310	4,999847
0,172000	0,713959	4,999847
0,173000	0,827484	4,999847
0,174000	0,710754	4,999847
0,175000	0,814667	4,999847
0,176000	0,737000	4,999847
0,177000	0,796509	4,999847
0,178000	0,760956	4,999847
0,179000	0,780029	3,730011
0,180000	0,782471	4,116058
0,181000	0,765533	2,689667
0,182000	0,802307	4,094849
0,183000	0,753174	4,999847
0,184000	0,820770	4,999847
0,185000	0,740051	4,999847
0,186000	0,811920	4,999847
0,187000	0,719299	4,999847
0,188000	0,845337	4,999847
0,189000	0,736389	2,790680
0,190000	0,830688	2,921448
0,191000	0,764618	4,764404
0,192000	0,814209	4,915619
0,193000	0,788574	4,999847
0,194000	0,799255	4,999847
0,195000	0,810242	4,999847
0,196000	0,785217	4,999847
0,197000	0,829926	4,999847
0,198000	0,772858	4,999847
0,199000	0,849304	3,913879
0,200000	0,762024	3,057251
0,201000	0,867004	4,693146
0,202000	0,751648	3,965912
0,203000	0,871124	4,999847
0,204000	0,752716	4,999847
0,205000	0,765991	4,999847
0,206000	0,771332	4,999847
0,207000	0,774384	4,999847
0,208000	0,872955	4,496613
0,209000	0,779266	3,531952
0,210000	0,879669	3,386078
0,211000	0,761261	4,828339
0,212000	0,882416	4,999847
0,213000	0,777588	4,999847
0,214000	0,863800	4,999847
0,215000	0,802460	4,999847
0,216000	0,846558	4,999847
0,217000	0,824890	4,999847
0,218000	0,830383	4,999847
0,219000	0,846100	3,850403
0,220000	0,815125	3,815460
0,221000	0,866394	2,478943
0,222000	0,800476	4,528656
0,223000	0,885468	4,999847
0,224000	0,787964	4,999847
0,225000	0,901947	4,999847
0,226000	0,778656	4,999847
0,227000	0,894623	4,999847
0,228000	0,803833	4,966278
0,229000	0,874939	2,556610
0,230000	0,826874	3,101196
0,231000	0,857391	4,386902
0,232000	0,849609	4,999847
0,233000	0,841522	4,999847
0,234000	0,870514	4,999847
0,235000	0,825958	4,999847
0,236000	0,890350	4,999847
0,237000	0,811615	4,999847
0,238000	0,907440	4,999847
0,239000	0,799255	4,193726
0,240000	0,919952	3,623962
0,241000	0,800171	2,502747
0,242000	0,900116	3,355408
0,243000	0,824738	4,999847
0,244000	0,844727	4,999847
0,245000	0,812988	4,999847
0,246000	0,825043	4,999847
0,247000	0,832214	4,999847
0,248000	0,807800	4,039001
0,249000	0,850372	4,342957
0,250000	0,791931	4,004059
0,251000	0,711670	4,414673
0,252000	0,675507	4,999847
0,253000	0,656586	4,999847
0,254000	0,650024	4,999847
0,255000	0,646973	4,999847
0,256000	0,645142	4,999847
0,257000	0,644684	4,999847
0,258000	0,644073	4,999847
0,259000	0,643768	4,062653
0,260000	0,643921	4,276886
0,261000	0,643921	3,967743
0,262000	0,643616	3,634338
0,263000	0,643616	4,999847
0,264000	0,643463	4,999847
0,265000	0,643463	4,999847
0,266000	0,643463	4,999847
0,267000	0,643158	4,999847
0,268000	0,643463	4,142303
0,269000	0,643311	3,003540
0,270000	0,643311	3,268585
0,271000	0,643463	4,054871
0,272000	0,540619	4,999847
0,273000	0,472870	4,999847
0,274000	0,448303	4,999847
0,275000	0,427399	4,999847
0,276000	0,428619	4,999847
0,277000	0,417328	4,999847
0,278000	0,424347	4,696503
0,279000	0,414581	3,493805
0,280000	0,422211	3,069763
0,281000	0,420837	4,273987
0,282000	0,423279	4,723969
0,283000	0,423279	4,999847
0,284000	0,422058	4,999847
0,285000	0,425110	4,999847
0,286000	0,422058	4,999847
0,287000	0,428772	4,999847
0,288000	0,404205	4,638519
0,289000	0,415344	3,459625
0,290000	0,416718	4,501495
0,291000	0,433960	3,412933
0,292000	0,425873	4,999847
0,293000	0,449982	4,999847
0,294000	0,444641	4,999847
0,295000	0,451965	4,999847
0,296000	0,449371	4,999847
0,297000	0,450897	4,999847
0,298000	0,448914	4,794006
0,299000	0,441589	3,817902
0,300000	0,450439	2,584076
0,301000	0,446014	2,849579
0,302000	0,457611	4,999847
0,303000	0,443420	4,999847
0,304000	0,459747	4,999847
0,305000	0,447083	4,999847
0,306000	0,464020	4,999847
0,307000	0,447540	4,999847
0,308000	0,460205	4,446869
0,309000	0,449829	3,316498
0,310000	0,456848	1,290894
0,311000	0,454407	4,873352
0,312000	0,454559	4,999847
0,313000	0,458069	4,999847
0,314000	0,452881	4,999847
0,315000	0,463104	4,999847
0,316000	0,450592	4,999847
0,317000	0,467529	4,999847
0,318000	0,449677	4,919434
0,319000	0,473022	4,346161
0,320000	0,446320	4,563904
0,321000	0,471802	3,966217
0,322000	0,449829	4,316711
0,323000	0,467682	4,999847
0,324000	0,463104	4,999847
0,325000	0,471802	4,999847
0,326000	0,471954	4,999847
0,327000	0,468445	4,999847
0,328000	0,475464	4,786987
0,329000	0,463715	3,578491
0,330000	0,478668	4,763336
0,331000	0,458984	4,102478
0,332000	0,482330	4,999847
0,333000	0,454102	4,999847
0,334000	0,485992	4,999847
0,335000	0,452423	4,999847
0,336000	0,481262	4,999847
0,337000	0,460052	4,999847
0,338000	0,477142	4,999847
0,339000	0,468597	4,469757
0,340000	0,471954	3,463593
0,341000	0,473175	3,745575
0,342000	0,465546	4,766998
0,343000	0,479279	4,999847
0,344000	0,460663	4,999847
0,345000	0,486298	4,999847
0,346000	0,456543	4,999847
0,347000	0,492249	4,717560
0,348000	0,455475	4,999847
0,349000	0,497589	3,250275
0,350000	0,461426	3,112793
0,351000	0,492706	4,847870
0,352000	0,471344	4,999847
0,353000	0,487671	4,999847
0,354000	0,481262	4,999847
0,355000	0,482941	4,999847
0,356000	0,489960	4,999847
0,357000	0,478668	4,999847
0,358000	0,497894	4,783936
0,359000	0,474396	3,948212
0,360000	0,505371	2,923737
0,361000	0,473938	4,999847
0,362000	0,514374	3,819885
0,363000	0,472107	4,999847
0,364000	0,514984	4,999847
0,365000	0,484009	4,999847
0,366000	0,510712	4,999847
0,367000	0,494843	4,871826
0,368000	0,506287	4,999847
0,369000	0,504456	3,469238
0,370000	0,501709	3,855133
0,371000	0,512543	4,999847
0,372000	0,497589	4,999847
0,373000	0,520935	4,999847
0,374000	0,494080	4,999847
0,375000	0,529327	4,999847
0,376000	0,491180	4,999847
0,377000	0,536346	4,999847
0,378000	0,488434	4,999847
0,379000	0,530243	3,988342
0,380000	0,496368	4,051514
0,381000	0,522308	3,537903
0,382000	0,508270	4,214783
0,383000	0,514984	4,999847
0,384000	0,518341	4,999847
0,385000	0,509186	4,999847
0,386000	0,527496	4,999847
0,387000	0,503235	4,999847
0,388000	0,535583	4,999847
0,389000	0,496674	3,480988
0,390000	0,543365	3,142242
0,391000	0,470428	4,567108
0,392000	0,539856	4,999847
0,393000	0,493469	4,999847
0,394000	0,538635	4,999847
0,395000	0,507812	4,999847
0,396000	0,530396	4,999847
0,397000	0,520172	4,999847
0,398000	0,524750	4,999847
0,399000	0,533752	3,796387
0,400000	0,518951	4,340668
0,401000	0,544128	4,148560
0,402000	0,511780	4,999847
0,403000	0,552673	4,999847
0,404000	0,506439	4,999847
0,405000	0,562134	4,999847
0,406000	0,503235	4,999847
0,407000	0,563812	4,999847
0,408000	0,514679	4,992523
0,409000	0,554504	3,237915
0,410000	0,529785	2,649994
0,411000	0,548401	4,999847
0,412000	0,546265	4,999847
0,413000	0,542908	4,999847
0,414000	0,557098	4,999847
0,415000	0,536041	4,999847
0,416000	0,567474	4,999847
0,417000	0,530548	4,999847
0,418000	0,575409	4,999847
0,419000	0,527802	3,645782
0,420000	0,587311	3,282776
0,421000	0,528870	3,875122
0,422000	0,584259	4,860992
0,423000	0,544739	4,999847
0,424000	0,576630	4,999847
0,425000	0,559692	4,999847
0,426000	0,571594	4,999847
0,427000	0,573425	4,999847
0,428000	0,565491	4,999847
0,429000	0,584412	3,053589
0,430000	0,560303	4,286499
0,431000	0,595245	4,999847
0,432000	0,554352	4,813995
0,433000	0,604095	4,999847
0,434000	0,549469	4,999847
0,435000	0,612030	4,999847
0,436000	0,553131	4,999847
0,437000	0,601807	4,999847
0,438000	0,567474	4,807129
0,439000	0,592651	3,684692
0,440000	0,578918	3,313904
0,441000	0,583191	4,999847
0,442000	0,590363	4,572144
0,443000	0,574036	4,999847
0,444000	0,599823	4,999847
0,445000	0,565948	4,999847
0,446000	0,610962	4,999847
0,447000	0,559082	4,999847
0,448000	0,620117	4,287415
0,449000	0,554199	3,068542
0,450000	0,622864	2,767181
0,451000	0,559540	4,999847
0,452000	0,606842	4,999847
0,453000	0,574646	4,999847
0,454000	0,596924	4,999847
0,455000	0,590973	4,999847
0,456000	0,589447	4,999847
0,457000	0,605164	4,999847
0,458000	0,580292	4,999847
0,459000	0,616302	2,902832
0,460000	0,570526	3,403015
0,461000	0,627289	4,916687
0,462000	0,567322	4,119415
0,463000	0,639343	4,999847
0,464000	0,558472	4,999847
0,465000	0,631561	4,999847
0,466000	0,576324	4,999847
0,467000	0,618591	4,999847
0,468000	0,590973	4,335175
0,469000	0,604553	2,903900
0,470000	0,604858	2,073364
0,471000	0,596771	4,999847
0,472000	0,621185	4,999847
0,473000	0,587463	4,999847
0,474000	0,631256	4,999847
0,475000	0,571747	4,999847
0,476000	0,641327	4,999847
0,477000	0,564117	4,999847
0,478000	0,652924	4,999847
0,479000	0,572815	3,800354
0,480000	0,642395	4,398041
0,481000	0,594025	3,623962
0,482000	0,629883	4,999847
0,483000	0,610504	4,999847
0,484000	0,618134	4,999847
0,485000	0,624237	4,999847
0,486000	0,600739	4,999847
0,487000	0,636902	4,999847
0,488000	0,593719	4,031372
0,489000	0,651093	2,781830
0,490000	0,584106	3,289032
0,491000	0,663605	4,999847
0,492000	0,575409	4,999847
0,493000	0,637360	4,999847
0,494000	0,545197	4,999847
0,495000	0,627136	4,999847
0,496000	0,595398	4,999847
0,497000	0,631256	4,999847
0,498000	0,621948	4,709015
0,499000	0,621338	3,107147
0,500000	0,639343	3,952179
0,501000	0,610809	4,680176
0,502000	0,655975	4,976654
0,503000	0,598297	4,999847
0,504000	0,668335	4,999847
0,505000	0,587769	4,999847
0,506000	0,681458	4,999847
0,507000	0,582275	4,999847
0,508000	0,677338	4,747467
0,509000	0,605774	2,950287
0,510000	0,661774	2,155304
0,511000	0,626068	4,913635
0,512000	0,646362	4,999847
0,513000	0,643158	4,999847
0,514000	0,632782	4,999847
0,515000	0,660706	4,999847
0,516000	0,621490	4,999847
0,517000	0,677032	4,999847
0,518000	0,611267	4,903717
0,519000	0,691528	3,432617
0,520000	0,601501	3,962402
0,521000	0,704651	3,403778
0,522000	0,604248	4,999847
0,523000	0,689850	4,999847
0,524000	0,624695	4,999847
0,525000	0,671844	4,999847
0,526000	0,645447	4,999847
0,527000	0,656891	4,918213
0,528000	0,664825	4,121857
0,529000	0,642090	2,524719
0,530000	0,681610	1,992645
0,531000	0,630798	4,868774
0,532000	0,698242	4,999847
0,533000	0,620117	4,999847
0,534000	0,713196	4,999847
0,535000	0,610809	4,999847
0,536000	0,721283	4,999847
0,537000	0,625000	4,999847
0,538000	0,702515	4,999847
0,539000	0,648041	4,002838
0,540000	0,684357	4,573669
0,541000	0,668030	3,838043
0,542000	0,669708	4,999847
0,543000	0,687866	4,999847
0,544000	0,657043	4,999847
0,545000	0,705872	4,999847
0,546000	0,644684	4,999847
0,547000	0,721893	4,893799
0,548000	0,632935	4,066772
0,549000	0,736847	2,369232
0,550000	0,624084	2,757568
0,551000	0,734863	4,751740
0,552000	0,649414	4,999847
0,553000	0,716705	4,999847
0,554000	0,673218	4,999847
0,555000	0,699921	4,999847
0,556000	0,693817	4,999847
0,557000	0,684052	4,999847
0,558000	0,712738	4,612732
0,559000	0,670776	4,124756
0,560000	0,730591	4,084320
0,561000	0,659027	4,161530
0,562000	0,747375	4,680328
0,563000	0,648499	4,999847
0,564000	0,762634	4,999847
0,565000	0,651245	4,999847
0,566000	0,750580	4,999847
0,567000	0,676727	4,999847
0,568000	0,732574	4,351807
0,569000	0,699768	3,359222
0,570000	0,715790	2,734375
0,571000	0,720825	4,345245
0,572000	0,701447	4,999847
0,573000	0,739899	4,999847
0,574000	0,688324	4,999847
0,575000	0,757751	4,999847
0,576000	0,676880	4,999847
0,577000	0,774231	4,999847
0,578000	0,666809	4,938507
0,579000	0,787201	3,735504
0,580000	0,680084	4,578094
0,581000	0,767365	3,219299
0,582000	0,704956	4,999847
0,583000	0,749054	4,999847
0,584000	0,727997	4,999847
0,585000	0,733185	4,999847
0,586000	0,748749	4,999847
0,587000	0,718842	4,712524
0,588000	0,767365	4,690094
0,589000	0,706177	3,104553
0,590000	0,785217	3,596344
0,591000	0,695190	4,725037
0,592000	0,801239	4,999847
0,593000	0,661774	4,999847
0,594000	0,772400	4,999847
0,595000	0,671539	4,999847
0,596000	0,733643	4,999847
0,597000	0,696106	4,999847
0,598000	0,731201	4,405823
0,599000	0,723419	3,714752
0,600000	0,718689	4,144287
0,601000	0,743866	4,003448
0,602000	0,705872	4,329987
0,603000	0,761414	4,999847
0,604000	0,693665	4,999847
0,605000	0,777435	4,999847
0,606000	0,683441	4,999847
0,607000	0,792236	4,783020
0,608000	0,682526	4,999847
0,609000	0,784760	2,462158
0,610000	0,707397	2,606506
0,611000	0,766449	4,390564
0,612000	0,730286	4,999847
0,613000	0,749969	4,999847
0,614000	0,750580	4,999847
0,615000	0,735321	4,999847
0,616000	0,769043	4,999847
0,617000	0,722504	4,999847
0,618000	0,785675	4,999847
0,619000	0,711365	3,789520
0,620000	0,802155	4,484863
0,621000	0,700989	4,513550
0,622000	0,817108	4,999847
0,623000	0,711517	4,999847
0,624000	0,802460	4,999847
0,625000	0,735168	4,999847
0,626000	0,784607	4,999847
0,627000	0,756683	4,409027
0,628000	0,768738	4,482269
0,629000	0,776215	3,213348
0,630000	0,754089	2,001953
0,631000	0,794373	4,999847
0,632000	0,741119	4,999847
0,633000	0,812073	4,999847
0,634000	0,728607	4,999847
0,635000	0,827942	4,999847
0,636000	0,716553	4,999847
0,637000	0,833130	4,921417
0,638000	0,736389	4,764862
0,639000	0,813904	3,812103
0,640000	0,758820	4,043732
0,641000	0,798645	4,308014
0,642000	0,726776	4,752197
0,643000	0,733795	4,999847
0,644000	0,737152	4,999847
0,645000	0,777893	4,999847
0,646000	0,807648	4,999847
0,647000	0,789185	4,812469
0,648000	0,786285	4,999847
0,649000	0,805511	2,704620
0,650000	0,771484	2,891998
0,651000	0,824127	4,999847
0,652000	0,758820	4,999847
0,653000	0,841675	4,999847
0,654000	0,746918	4,999847
0,655000	0,857239	4,999847
0,656000	0,743713	4,999847
0,657000	0,851593	4,998016
0,658000	0,768890	4,999847
0,659000	0,833893	3,569336
0,660000	0,790863	3,695374
0,661000	0,816498	3,701324
0,662000	0,811310	4,999847
0,663000	0,799561	4,999847
0,664000	0,830383	4,999847
0,665000	0,784760	4,999847
0,666000	0,848083	4,999847
0,667000	0,771027	4,999847
0,668000	0,863190	4,267883
0,669000	0,758209	2,747192
0,670000	0,873108	2,527161
0,671000	0,767670	4,726257
0,672000	0,858154	4,999847
0,673000	0,789795	4,999847
0,674000	0,837860	4,999847
0,675000	0,810852	4,999847
0,676000	0,820770	4,999847
0,677000	0,830994	4,999847
0,678000	0,804138	4,906921
0,679000	0,849457	3,943939
0,680000	0,790100	4,418945
0,681000	0,865479	4,691315
0,682000	0,775452	4,326782
0,683000	0,876160	4,999847
0,684000	0,762787	4,999847
0,685000	0,877533	4,999847
0,686000	0,783844	4,999847
0,687000	0,856476	4,592896
0,688000	0,742035	4,468384
0,689000	0,686798	2,410126
0,690000	0,662079	3,431091
0,691000	0,650177	4,999847
0,692000	0,644379	4,999847
0,693000	0,642242	4,999847
0,694000	0,641022	4,999847
0,695000	0,640717	4,999847
0,696000	0,640259	4,999847
0,697000	0,639801	4,999847
0,698000	0,620880	4,999847
0,699000	0,626678	3,057098
0,700000	0,633392	4,999847
0,701000	0,637054	3,992920
0,702000	0,638428	4,772644
0,703000	0,638733	4,999847
0,704000	0,639191	4,999847
0,705000	0,639648	4,999847
0,706000	0,639496	4,999847
0,707000	0,639191	4,999847
0,708000	0,639496	4,818878
0,709000	0,579376	2,605286
0,710000	0,522919	2,796936
0,711000	0,497437	4,999847
0,712000	0,486603	4,999847
0,713000	0,480347	4,999847
0,714000	0,478210	4,999847
0,715000	0,476074	4,999847
0,716000	0,475616	4,999847
0,717000	0,474091	4,999847
0,718000	0,475616	4,999847
0,719000	0,474396	3,720703
0,720000	0,473938	4,478149
0,721000	0,473480	2,632599
0,722000	0,474548	4,999847
0,723000	0,473938	4,999847
0,724000	0,473633	4,999847
0,725000	0,473022	4,999847
0,726000	0,473328	4,999847
0,727000	0,474548	4,873657
0,728000	0,473938	4,532623
0,729000	0,474243	2,628326
0,730000	0,474548	3,885956
0,731000	0,474548	4,986267
0,732000	0,474091	4,999847
0,733000	0,473633	4,999847
0,734000	0,473175	4,999847
0,735000	0,472717	4,999847
0,736000	0,471954	4,999847
0,737000	0,471649	4,999847
0,738000	0,471802	4,999847
0,739000	0,471802	3,547363
0,740000	0,470734	4,999847
0,741000	0,467529	4,261017
0,742000	0,462341	4,999847
0,743000	0,465393	4,999847
0,744000	0,466309	4,999847
0,745000	0,471344	4,999847
0,746000	0,469360	4,999847
0,747000	0,474396	4,690552
0,748000	0,473938	4,082336
0,749000	0,476990	2,335358
0,750000	0,473328	3,247986
0,751000	0,476227	4,995117
0,752000	0,475311	4,999847
0,753000	0,474091	4,999847
0,754000	0,478668	4,999847
0,755000	0,494385	4,999847
0,756000	0,498047	4,999847
0,757000	0,487518	4,999847
0,758000	0,492706	4,999847
0,759000	0,481720	3,487854
0,760000	0,491791	4,406433
0,761000	0,483246	3,029022
0,762000	0,496368	4,999847
0,763000	0,493622	4,999847
0,764000	0,500336	4,999847
0,765000	0,499268	4,999847
0,766000	0,502167	4,999847
0,767000	0,502167	4,999847
0,768000	0,500641	4,917145
0,769000	0,503387	2,821808
0,770000	0,500793	3,995514
0,771000	0,507660	4,500885
0,772000	0,502472	4,999847
0,773000	0,511169	4,999847
0,774000	0,503387	4,999847
0,775000	0,514221	4,999847
0,776000	0,503693	4,999847
0,777000	0,514069	4,999847
0,778000	0,508575	4,999847
0,779000	0,513153	3,552094
0,780000	0,510712	4,999847
0,781000	0,509796	3,832245
0,782000	0,510559	4,999847
0,783000	0,508728	4,999847
0,784000	0,515900	4,999847
0,785000	0,509033	4,999847
0,786000	0,519867	4,999847
0,787000	0,507050	4,999847
0,788000	0,523071	3,484650
0,789000	0,502625	2,639008
0,790000	0,523224	4,325562
0,791000	0,504913	4,999847
0,792000	0,519867	4,999847
0,793000	0,507965	4,999847
0,794000	0,516815	4,999847
0,795000	0,516510	4,999847
0,796000	0,516205	4,999847
0,797000	0,521851	4,999847
0,798000	0,518188	4,219513
0,799000	0,530090	3,623657
0,800000	0,498810	4,159546
0,801000	0,513306	3,051910
0,802000	0,501862	4,999847
0,803000	0,532074	4,999847
0,804000	0,501709	4,999847
0,805000	0,531921	4,999847
0,806000	0,507050	4,999847
0,807000	0,526276	4,999847
0,808000	0,514984	4,332733
0,809000	0,521088	2,971497
0,810000	0,521851	3,346405
0,811000	0,515442	3,955536
0,812000	0,526733	4,999847
0,813000	0,511322	4,999847
0,814000	0,534058	4,999847
0,815000	0,506897	4,999847
0,816000	0,539856	4,999847
0,817000	0,506287	4,999847
0,818000	0,547333	4,999847
0,819000	0,504608	3,940277
0,820000	0,541229	4,999847
0,821000	0,518188	3,748016
0,822000	0,536652	4,999847
0,823000	0,528107	4,999847
0,824000	0,535736	4,999847
0,825000	0,541840	4,999847
0,826000	0,536499	4,999847
0,827000	0,552216	4,999847
0,828000	0,533447	3,926239
0,829000	0,558014	2,861176
0,830000	0,526123	3,297882
0,831000	0,562897	3,949738
0,832000	0,519562	4,999847
0,833000	0,564728	4,999847
0,834000	0,529327	4,999847
0,835000	0,560303	4,999847
0,836000	0,540161	4,999847
0,837000	0,556183	4,999847
0,838000	0,551453	4,999847
0,839000	0,551758	3,577118
0,840000	0,559082	4,995117
0,841000	0,545654	3,936157
0,842000	0,567017	4,999847
0,843000	0,541687	4,999847
0,844000	0,574341	4,999847
0,845000	0,537109	4,999847
0,846000	0,582123	4,999847
0,847000	0,535583	4,999847
0,848000	0,581818	4,470673
0,849000	0,544891	3,137665
0,850000	0,573883	3,976898
0,851000	0,555725	4,777374
0,852000	0,566864	4,999847
0,853000	0,565796	4,999847
0,854000	0,561523	4,999847
0,855000	0,576324	4,999847
0,856000	0,557251	4,999847
0,857000	0,585327	4,960327
0,858000	0,552216	4,999847
0,859000	0,593262	3,709869
0,860000	0,547180	3,604126
0,861000	0,598450	2,980194
0,862000	0,545807	4,999847
0,863000	0,593109	4,999847
0,864000	0,559540	4,999847
0,865000	0,585632	4,999847
0,866000	0,571442	4,999847
0,867000	0,577698	4,868011
0,868000	0,581512	4,338379
0,869000	0,570526	3,237152
0,870000	0,591736	4,250641
0,871000	0,565033	4,977112
0,872000	0,601501	4,999847
0,873000	0,558777	4,999847
0,874000	0,610504	4,999847
0,875000	0,552979	4,999847
0,876000	0,615387	4,999847
0,877000	0,559387	4,783936
0,878000	0,604706	4,370117
0,879000	0,572815	3,714142
0,880000	0,595245	4,200745
0,881000	0,584564	3,679810
0,882000	0,585632	4,999847
0,883000	0,596161	4,999847
0,884000	0,577545	4,999847
0,885000	0,607147	4,999847
0,886000	0,569916	4,999847
0,887000	0,617065	4,911041
0,888000	0,563507	4,999847
0,889000	0,626831	2,883301
0,890000	0,559082	3,744965
0,891000	0,626984	4,999847
0,892000	0,574036	4,999847
0,893000	0,615387	4,999847
0,894000	0,588226	4,999847
0,895000	0,605011	4,999847
0,896000	0,599518	4,999847
0,897000	0,594482	4,999847
0,898000	0,612488	4,999847
0,899000	0,586853	3,625641
0,900000	0,625000	3,800201
0,901000	0,579681	3,865509
0,902000	0,635986	4,999847
0,903000	0,526886	4,999847
0,904000	0,616760	4,999847
0,905000	0,558777	4,999847
0,906000	0,632019	4,999847
0,907000	0,585937	4,613800
0,908000	0,624847	4,999847
0,909000	0,602722	3,112183
0,910000	0,613556	3,851166
0,911000	0,617371	4,999847
0,912000	0,602875	4,999847
0,913000	0,629272	4,999847
0,914000	0,593414	4,999847
0,915000	0,642242	4,999847
0,916000	0,584717	4,999847
0,917000	0,653687	4,829102
0,918000	0,577545	4,999847
0,919000	0,662079	3,482208
0,920000	0,585175	4,336090
0,921000	0,647583	3,362274
0,922000	0,602112	4,999847
0,923000	0,633240	4,999847
0,924000	0,617828	4,999847
0,925000	0,620880	4,999847
0,926000	0,633087	4,999847
0,927000	0,609436	4,999847
0,928000	0,646362	4,434967
0,929000	0,599670	2,990875
0,930000	0,656128	3,049622
0,931000	0,586853	4,999847
0,932000	0,670319	4,999847
0,933000	0,574036	4,999847
0,934000	0,668030	4,999847
0,935000	0,597534	4,999847
0,936000	0,655518	4,999847
0,937000	0,617371	4,999847
0,938000	0,642242	4,999847
0,939000	0,635071	3,382263
0,940000	0,629120	4,683533
0,941000	0,650482	4,281311
0,942000	0,615997	4,999847
0,943000	0,663910	4,999847
0,944000	0,603943	4,999847
0,945000	0,677185	4,999847
0,946000	0,594025	4,999847
0,947000	0,689850	4,999847
0,948000	0,592346	4,666290
0,949000	0,680695	2,911072
0,950000	0,612183	2,570343
0,951000	0,663757	4,709930
0,952000	0,632935	4,999847
0,953000	0,648956	4,999847
0,954000	0,651093	4,999847
0,955000	0,635986	4,999847
0,956000	0,668182	4,999847
0,957000	0,621338	4,999847
0,958000	0,682526	4,999847
0,959000	0,613098	3,035126
0,960000	0,698242	4,697723
0,961000	0,603333	3,644104
0,962000	0,710144	4,273376
0,963000	0,611267	4,999847
0,964000	0,692596	4,999847
0,965000	0,633850	4,999847
0,966000	0,675659	4,999847
0,967000	0,653839	4,815216
0,968000	0,660400	3,669891
0,969000	0,672455	2,910004
0,970000	0,646057	3,826904
0,971000	0,688629	4,584503
0,972000	0,632935	4,999847
0,973000	0,704803	4,999847
0,974000	0,622253	4,999847
0,975000	0,719604	4,999847
0,976000	0,612335	4,999847
0,977000	0,722809	4,999847
0,978000	0,631866	4,999847
0,979000	0,703735	3,070984
0,980000	0,654449	4,999847
0,981000	0,687408	3,356018
0,982000	0,675659	4,999847
0,983000	0,671387	4,999847
0,984000	0,694580	4,999847
0,985000	0,658417	4,999847
0,986000	0,712585	4,999847
0,987000	0,646820	4,999847
0,988000	0,729370	4,787140
0,989000	0,635986	3,012085
0,990000	0,744019	4,562073
0,991000	0,632019	4,999847
0,992000	0,737152	4,999847
0,993000	0,657043	4,999847
0,994000	0,718689	4,999847
0,995000	0,679932	4,999847
0,996000	0,701141	4,999847
0,997000	0,700989	4,999847
0,998000	0,686493	4,984741
0,999000	0,720367	3,208618

