LabVIEW Measurement	
Writer_Version	2
Reader_Version	2
Separator	Tab
Decimal_Separator	,
Multi_Headings	Yes
X_Columns	One
Time_Pref	Absolute
Operator	d.nicolai
Date	2023/11/09
Time	16:04:05,6565121999996605588
***End_of_Header***	
	
Channels	2		
Samples	1000	1000	
Date	2023/11/09	2023/11/09	
Time	16:04:20,5775128999997014642	16:04:20,5775128999997014642	
Y_Unit_Label	Volts	Volts	
X_Dimension	Time	Time	
X0	0,0000000000000000E+0	0,0000000000000000E+0	
Delta_X	0,001000	0,001000	
***End_of_Header***			
X_Value	powebox	triggerbox	Comment
0,000000	0,581665	0,893860
0,001000	0,565948	4,035950
0,002000	0,586700	4,747162
0,003000	0,561829	4,999847
0,004000	0,591583	4,999847
0,005000	0,560608	4,999847
0,006000	0,591125	4,999847
0,007000	0,567474	4,999847
0,008000	0,586700	4,999847
0,009000	0,573425	4,776001
0,010000	0,577850	2,002716
0,011000	0,577850	4,429169
0,012000	0,574646	2,723236
0,013000	0,585785	4,999847
0,014000	0,567474	4,999847
0,015000	0,590973	4,999847
0,016000	0,565948	4,999847
0,017000	0,598755	4,999847
0,018000	0,563202	4,506836
0,019000	0,605164	3,116913
0,020000	0,564575	2,921906
0,021000	0,600281	4,015961
0,022000	0,574646	4,999847
0,023000	0,594635	4,999847
0,024000	0,583801	4,999847
0,025000	0,589752	4,999847
0,026000	0,593262	4,999847
0,027000	0,585937	4,999847
0,028000	0,602875	4,999847
0,029000	0,579834	3,763580
0,030000	0,608673	4,999847
0,031000	0,577698	3,170624
0,032000	0,617523	4,574280
0,033000	0,576324	4,999847
0,034000	0,622711	4,999847
0,035000	0,583954	4,999847
0,036000	0,613861	4,999847
0,037000	0,591736	4,999847
0,038000	0,610352	4,986572
0,039000	0,604706	2,843628
0,040000	0,605164	2,930450
0,041000	0,613708	4,265137
0,042000	0,600281	4,675293
0,043000	0,622406	4,999847
0,044000	0,594330	4,999847
0,045000	0,629578	4,999847
0,046000	0,591278	4,999847
0,047000	0,637665	4,999847
0,048000	0,586853	4,999847
0,049000	0,637054	4,283447
0,050000	0,600128	4,041138
0,051000	0,631104	4,756622
0,052000	0,609894	3,932800
0,053000	0,618591	4,999847
0,054000	0,612946	4,999847
0,055000	0,608978	4,999847
0,056000	0,625610	4,999847
0,057000	0,603943	4,999847
0,058000	0,635529	4,999847
0,059000	0,597839	2,839966
0,060000	0,644226	4,460754
0,061000	0,591278	3,581238
0,062000	0,652618	4,779358
0,063000	0,588684	4,999847
0,064000	0,644684	4,999847
0,065000	0,606537	4,999847
0,066000	0,637207	4,999847
0,067000	0,619354	4,999847
0,068000	0,627136	4,999847
0,069000	0,630035	3,144684
0,070000	0,621338	4,493866
0,071000	0,643158	3,501434
0,072000	0,612946	3,074341
0,073000	0,652771	4,999847
0,074000	0,604248	4,999847
0,075000	0,661469	4,999847
0,076000	0,601349	4,999847
0,077000	0,670624	4,999847
0,078000	0,605621	4,999847
0,079000	0,655975	3,332062
0,080000	0,619659	4,002991
0,081000	0,646515	4,933472
0,082000	0,633545	4,999847
0,083000	0,638428	4,999847
0,084000	0,647888	4,999847
0,085000	0,592957	4,999847
0,086000	0,638123	4,999847
0,087000	0,608368	4,999847
0,088000	0,664215	4,999847
0,089000	0,612030	3,839569
0,090000	0,679932	2,973022
0,091000	0,605469	4,822235
0,092000	0,681152	3,262329
0,093000	0,622101	4,999847
0,094000	0,670013	4,999847
0,095000	0,639343	4,999847
0,096000	0,659027	4,999847
0,097000	0,652924	4,999847
0,098000	0,648651	3,896637
0,099000	0,666199	2,790375
0,100000	0,637360	4,255524
0,101000	0,675354	3,337402
0,102000	0,627899	4,999847
0,103000	0,688629	4,999847
0,104000	0,620880	4,999847
0,105000	0,699768	4,999847
0,106000	0,616608	4,999847
0,107000	0,691528	4,999847
0,108000	0,633698	4,999847
0,109000	0,677032	3,840027
0,110000	0,650787	3,710175
0,111000	0,665588	4,306946
0,112000	0,666656	3,674164
0,113000	0,653229	4,999847
0,114000	0,680237	4,999847
0,115000	0,642242	4,999847
0,116000	0,693817	4,999847
0,117000	0,633698	4,999847
0,118000	0,706482	3,988953
0,119000	0,625458	2,441559
0,120000	0,717621	3,167877
0,121000	0,631714	3,959045
0,122000	0,703278	4,961548
0,123000	0,651093	4,999847
0,124000	0,688019	4,999847
0,125000	0,668030	4,999847
0,126000	0,672607	4,999847
0,127000	0,678864	4,999847
0,128000	0,657196	4,999847
0,129000	0,696564	4,466858
0,130000	0,646210	4,201965
0,131000	0,710297	4,004669
0,132000	0,637054	4,832916
0,133000	0,723724	4,999847
0,134000	0,625610	4,999847
0,135000	0,727386	4,999847
0,136000	0,642395	4,999847
0,137000	0,709381	4,999847
0,138000	0,662842	4,999847
0,139000	0,692596	4,140930
0,140000	0,681152	4,004669
0,141000	0,678101	3,884277
0,142000	0,699158	4,665222
0,143000	0,665894	4,999847
0,144000	0,715790	4,999847
0,145000	0,655518	4,999847
0,146000	0,731659	4,999847
0,147000	0,644684	4,999847
0,148000	0,745087	4,568329
0,149000	0,640717	4,177704
0,150000	0,741119	2,795563
0,151000	0,662994	4,505615
0,152000	0,722656	4,999847
0,153000	0,685272	4,999847
0,154000	0,707245	4,999847
0,155000	0,704956	4,999847
0,156000	0,691833	4,999847
0,157000	0,722656	4,999847
0,158000	0,677795	3,753052
0,159000	0,738983	3,850555
0,160000	0,665894	4,006500
0,161000	0,754242	4,999847
0,162000	0,655518	4,999847
0,163000	0,768280	4,999847
0,164000	0,660400	4,999847
0,165000	0,751648	4,999847
0,166000	0,683746	4,999847
0,167000	0,734100	4,999847
0,168000	0,707092	4,318085
0,169000	0,718842	3,728180
0,170000	0,727386	4,368744
0,171000	0,703583	4,708099
0,172000	0,746155	4,577332
0,173000	0,690155	4,999847
0,174000	0,762482	4,999847
0,175000	0,678101	4,999847
0,176000	0,778198	4,999847
0,177000	0,667877	4,999847
0,178000	0,785828	4,036407
0,179000	0,684814	3,505249
0,180000	0,765533	3,516693
0,181000	0,708923	4,850159
0,182000	0,746613	4,999847
0,183000	0,721436	4,999847
0,184000	0,703430	4,999847
0,185000	0,722809	4,999847
0,186000	0,690918	4,999847
0,187000	0,723877	4,999847
0,188000	0,662079	4,999847
0,189000	0,749664	4,160461
0,190000	0,664215	1,755524
0,191000	0,770416	4,590454
0,192000	0,660858	3,714752
0,193000	0,771942	4,999847
0,194000	0,686798	4,999847
0,195000	0,752716	4,999847
0,196000	0,708771	4,999847
0,197000	0,736542	4,999847
0,198000	0,729980	4,999847
0,199000	0,721436	3,312378
0,200000	0,749054	3,542328
0,201000	0,707245	3,191223
0,202000	0,765228	4,999847
0,203000	0,695801	4,999847
0,204000	0,781250	4,999847
0,205000	0,685425	4,999847
0,206000	0,796356	4,999847
0,207000	0,690308	4,999847
0,208000	0,791321	4,995422
0,209000	0,714569	4,112244
0,210000	0,771637	4,208679
0,211000	0,736237	3,347778
0,212000	0,754700	3,961487
0,213000	0,756378	4,999847
0,214000	0,739594	4,999847
0,215000	0,774689	4,999847
0,216000	0,726471	4,999847
0,217000	0,791321	4,999847
0,218000	0,713654	4,124298
0,219000	0,806732	2,830353
0,220000	0,703278	3,444519
0,221000	0,821228	4,427338
0,222000	0,718994	4,999847
0,223000	0,808563	4,999847
0,224000	0,741882	4,999847
0,225000	0,788422	4,999847
0,226000	0,762024	4,999847
0,227000	0,766602	4,999847
0,228000	0,779266	4,999847
0,229000	0,756531	3,667908
0,230000	0,799408	4,999847
0,231000	0,742950	2,835693
0,232000	0,816956	4,999847
0,233000	0,732117	4,999847
0,234000	0,833282	4,999847
0,235000	0,724030	4,999847
0,236000	0,844879	4,999847
0,237000	0,747986	4,999847
0,238000	0,827637	4,999847
0,239000	0,770416	3,484344
0,240000	0,807800	2,766724
0,241000	0,789337	4,314575
0,242000	0,789642	4,801483
0,243000	0,734711	4,999847
0,244000	0,737915	4,999847
0,245000	0,738831	4,999847
0,246000	0,739746	4,999847
0,247000	0,824585	4,999847
0,248000	0,764923	4,965515
0,249000	0,837250	4,196625
0,250000	0,750732	2,901764
0,251000	0,852661	4,332123
0,252000	0,740967	4,490356
0,253000	0,859070	4,999847
0,254000	0,762482	4,999847
0,255000	0,839539	4,999847
0,256000	0,784607	4,999847
0,257000	0,821838	4,999847
0,258000	0,804596	4,999847
0,259000	0,804291	3,753662
0,260000	0,824280	3,780212
0,261000	0,790253	3,837891
0,262000	0,843201	4,999847
0,263000	0,775604	4,999847
0,264000	0,859222	4,999847
0,265000	0,761871	4,999847
0,266000	0,872345	4,999847
0,267000	0,761719	4,999847
0,268000	0,866394	4,999847
0,269000	0,784302	3,909302
0,270000	0,845947	3,504181
0,271000	0,805359	4,272614
0,272000	0,827332	3,846283
0,273000	0,825500	4,999847
0,274000	0,810852	4,999847
0,275000	0,844879	4,999847
0,276000	0,794830	4,999847
0,277000	0,861816	4,999847
0,278000	0,778809	4,413147
0,279000	0,874329	3,871307
0,280000	0,766907	3,511505
0,281000	0,881042	4,861603
0,282000	0,778809	4,999847
0,283000	0,866089	4,999847
0,284000	0,801544	4,999847
0,285000	0,846100	4,999847
0,286000	0,823212	4,999847
0,287000	0,829163	4,999847
0,288000	0,843811	4,999847
0,289000	0,814362	3,895264
0,290000	0,702057	4,093475
0,291000	0,669708	3,210297
0,292000	0,654602	3,642883
0,293000	0,647278	4,999847
0,294000	0,643921	4,999847
0,295000	0,642548	4,999847
0,296000	0,641785	4,999847
0,297000	0,641174	4,999847
0,298000	0,641022	4,999847
0,299000	0,640869	3,568268
0,300000	0,640717	3,643188
0,301000	0,640869	4,537048
0,302000	0,640869	4,887695
0,303000	0,640869	4,999847
0,304000	0,640869	4,999847
0,305000	0,640564	4,999847
0,306000	0,640106	4,999847
0,307000	0,640259	4,999847
0,308000	0,640106	4,999847
0,309000	0,640411	4,353638
0,310000	0,640564	3,230286
0,311000	0,640564	3,750458
0,312000	0,640411	3,530426
0,313000	0,640564	4,999847
0,314000	0,640259	4,999847
0,315000	0,610046	4,999847
0,316000	0,550537	4,999847
0,317000	0,525818	4,999847
0,318000	0,514374	4,999847
0,319000	0,509949	2,973633
0,320000	0,509491	4,429321
0,321000	0,509186	3,706512
0,322000	0,510712	4,509277
0,323000	0,509949	4,999847
0,324000	0,511627	4,999847
0,325000	0,509338	4,999847
0,326000	0,512543	4,999847
0,327000	0,510559	4,999847
0,328000	0,514679	4,999847
0,329000	0,512695	4,309845
0,330000	0,514832	3,930664
0,331000	0,512695	3,407440
0,332000	0,513763	3,581085
0,333000	0,514374	4,999847
0,334000	0,513000	4,999847
0,335000	0,512238	4,999847
0,336000	0,510559	4,999847
0,337000	0,510101	4,999847
0,338000	0,504150	4,669495
0,339000	0,507050	3,361053
0,340000	0,505676	3,432770
0,341000	0,510559	4,119415
0,342000	0,509186	4,281921
0,343000	0,511627	4,999847
0,344000	0,508118	4,999847
0,345000	0,509796	4,999847
0,346000	0,509491	4,999847
0,347000	0,510254	4,999847
0,348000	0,509186	4,999847
0,349000	0,507050	3,164062
0,350000	0,507660	3,011780
0,351000	0,506134	3,344269
0,352000	0,507660	3,662567
0,353000	0,504608	4,999847
0,354000	0,507202	4,999847
0,355000	0,505219	4,999847
0,356000	0,507660	4,999847
0,357000	0,503845	4,999847
0,358000	0,504608	4,577026
0,359000	0,503387	3,027191
0,360000	0,504303	3,461304
0,361000	0,503998	2,898712
0,362000	0,504303	4,999847
0,363000	0,505066	4,999847
0,364000	0,505219	4,999847
0,365000	0,507202	4,999847
0,366000	0,507507	4,999847
0,367000	0,507202	4,999847
0,368000	0,507660	4,999847
0,369000	0,509644	3,828735
0,370000	0,517578	3,220673
0,371000	0,523834	4,017487
0,372000	0,524750	3,483276
0,373000	0,525055	4,999847
0,374000	0,526123	4,999847
0,375000	0,527344	4,999847
0,376000	0,527954	4,999847
0,377000	0,527954	4,999847
0,378000	0,528107	4,999847
0,379000	0,528717	3,170624
0,380000	0,528564	2,514496
0,381000	0,529785	3,701019
0,382000	0,528870	4,999847
0,383000	0,531464	4,999847
0,384000	0,528717	4,999847
0,385000	0,532532	4,999847
0,386000	0,526886	4,999847
0,387000	0,531311	4,999847
0,388000	0,528870	4,095306
0,389000	0,531616	4,198914
0,390000	0,531616	4,931030
0,391000	0,533295	3,681793
0,392000	0,509186	3,510132
0,393000	0,496674	4,999847
0,394000	0,513000	4,999847
0,395000	0,524750	4,999847
0,396000	0,536194	4,999847
0,397000	0,534973	4,999847
0,398000	0,542908	3,876648
0,399000	0,538025	3,080902
0,400000	0,545807	2,860107
0,401000	0,540619	4,999847
0,402000	0,546570	4,999847
0,403000	0,544128	4,999847
0,404000	0,546570	4,999847
0,405000	0,546570	4,999847
0,406000	0,547333	4,999847
0,407000	0,550537	4,999847
0,408000	0,548248	4,999847
0,409000	0,554047	3,850250
0,410000	0,549469	2,949677
0,411000	0,557556	4,172821
0,412000	0,548859	4,488068
0,413000	0,559845	4,999847
0,414000	0,548859	4,999847
0,415000	0,560760	4,999847
0,416000	0,552979	4,999847
0,417000	0,560303	4,999847
0,418000	0,556183	4,345703
0,419000	0,559235	3,785706
0,420000	0,560150	2,838593
0,421000	0,557251	4,404144
0,422000	0,555420	4,999847
0,423000	0,554047	4,999847
0,424000	0,566864	4,999847
0,425000	0,556488	4,999847
0,426000	0,571899	4,999847
0,427000	0,555115	4,999847
0,428000	0,575256	4,999847
0,429000	0,554352	4,450531
0,430000	0,572815	3,589020
0,431000	0,562897	3,706970
0,432000	0,572205	4,624634
0,433000	0,568237	4,999847
0,434000	0,570526	4,999847
0,435000	0,572662	4,999847
0,436000	0,568390	4,999847
0,437000	0,578308	4,999847
0,438000	0,566101	4,439850
0,439000	0,582733	2,754669
0,440000	0,563202	3,550873
0,441000	0,587158	4,324188
0,442000	0,563049	4,999847
0,443000	0,590210	4,999847
0,444000	0,566711	4,999847
0,445000	0,586853	4,999847
0,446000	0,575714	4,999847
0,447000	0,584106	4,999847
0,448000	0,581970	4,999847
0,449000	0,579834	4,575958
0,450000	0,586548	3,676147
0,451000	0,577240	3,347473
0,452000	0,593109	4,999847
0,453000	0,574951	4,947052
0,454000	0,598450	4,999847
0,455000	0,569916	4,999847
0,456000	0,603333	4,999847
0,457000	0,569000	4,999847
0,458000	0,602570	4,712677
0,459000	0,575867	3,749084
0,460000	0,596466	2,667847
0,461000	0,583954	4,999847
0,462000	0,592194	4,999847
0,463000	0,593719	4,999847
0,464000	0,588837	4,999847
0,465000	0,600739	4,999847
0,466000	0,586243	4,999847
0,467000	0,608826	4,999847
0,468000	0,581055	4,426117
0,469000	0,614624	4,337616
0,470000	0,578003	2,780304
0,471000	0,620575	4,030914
0,472000	0,578156	4,031372
0,473000	0,614014	4,999847
0,474000	0,588074	4,999847
0,475000	0,607758	4,999847
0,476000	0,597076	4,999847
0,477000	0,601501	4,999847
0,478000	0,605927	4,999847
0,479000	0,595856	3,933411
0,480000	0,613861	2,663422
0,481000	0,590057	4,935150
0,482000	0,621643	4,999847
0,483000	0,584869	4,999847
0,484000	0,629120	4,999847
0,485000	0,579224	4,999847
0,486000	0,632019	4,999847
0,487000	0,585785	4,999847
0,488000	0,623016	4,999847
0,489000	0,597687	3,802032
0,490000	0,613708	4,286804
0,491000	0,606079	4,000397
0,492000	0,605011	4,999847
0,493000	0,615845	4,999847
0,494000	0,591431	4,999847
0,495000	0,599518	4,999847
0,496000	0,580444	4,999847
0,497000	0,629578	4,999847
0,498000	0,584412	4,602356
0,499000	0,642700	3,385315
0,500000	0,582428	3,663940
0,501000	0,642548	4,752045
0,502000	0,597229	4,999847
0,503000	0,633240	4,999847
0,504000	0,610809	4,999847
0,505000	0,624542	4,999847
0,506000	0,622559	4,999847
0,507000	0,616150	4,999847
0,508000	0,633698	4,999847
0,509000	0,610199	4,198456
0,510000	0,644836	3,119354
0,511000	0,604553	3,292389
0,512000	0,655212	4,428253
0,513000	0,595856	4,999847
0,514000	0,662994	4,999847
0,515000	0,592194	4,999847
0,516000	0,652008	4,999847
0,517000	0,611115	4,999847
0,518000	0,641479	4,444885
0,519000	0,625610	3,496704
0,520000	0,634308	3,973694
0,521000	0,639648	4,190216
0,522000	0,626831	4,999847
0,523000	0,651703	4,999847
0,524000	0,618134	4,999847
0,525000	0,661926	4,999847
0,526000	0,608673	4,999847
0,527000	0,671997	4,999847
0,528000	0,602112	4,999847
0,529000	0,678253	4,096069
0,530000	0,610199	2,486420
0,531000	0,663910	4,220276
0,532000	0,623322	4,546814
0,533000	0,649872	4,919739
0,534000	0,636444	4,999847
0,535000	0,637665	4,999847
0,536000	0,649719	4,999847
0,537000	0,625610	4,999847
0,538000	0,661926	4,999847
0,539000	0,616302	3,766785
0,540000	0,674744	2,480011
0,541000	0,607147	4,999847
0,542000	0,686493	4,999847
0,543000	0,599518	4,999847
0,544000	0,684814	4,999847
0,545000	0,616608	4,999847
0,546000	0,669556	4,999847
0,547000	0,632782	4,999847
0,548000	0,654755	4,999847
0,549000	0,649872	3,716431
0,550000	0,640869	3,797607
0,551000	0,662994	3,695984
0,552000	0,628662	4,340363
0,553000	0,677338	4,999847
0,554000	0,619354	4,999847
0,555000	0,691376	4,999847
0,556000	0,610199	4,999847
0,557000	0,703583	4,999847
0,558000	0,611115	4,565125
0,559000	0,693817	3,528595
0,560000	0,630646	3,549652
0,561000	0,676117	4,302521
0,562000	0,647736	4,999847
0,563000	0,662689	4,999847
0,564000	0,666656	4,999847
0,565000	0,649719	4,999847
0,566000	0,683289	4,999847
0,567000	0,638885	4,999847
0,568000	0,698090	4,999847
0,569000	0,628662	4,117432
0,570000	0,712585	4,081268
0,571000	0,617218	2,819672
0,572000	0,722504	4,063873
0,573000	0,628662	4,999847
0,574000	0,704651	4,999847
0,575000	0,650024	4,999847
0,576000	0,689240	4,999847
0,577000	0,670624	4,999847
0,578000	0,674896	4,442444
0,579000	0,688629	3,295898
0,580000	0,661011	3,900604
0,581000	0,704498	4,772034
0,582000	0,648346	4,999847
0,583000	0,719452	4,999847
0,584000	0,637054	4,999847
0,585000	0,733185	4,999847
0,586000	0,627136	4,999847
0,587000	0,735168	4,999847
0,588000	0,647430	4,999847
0,589000	0,716095	3,643951
0,590000	0,669403	4,999847
0,591000	0,698853	4,260712
0,592000	0,690002	4,284821
0,593000	0,684204	4,999847
0,594000	0,707703	4,999847
0,595000	0,670166	4,999847
0,596000	0,726013	4,999847
0,597000	0,627136	4,999847
0,598000	0,720520	4,490204
0,599000	0,637512	3,072662
0,600000	0,751953	2,816315
0,601000	0,643921	4,686584
0,602000	0,747528	4,892120
0,603000	0,670319	4,999847
0,604000	0,729065	4,999847
0,605000	0,692749	4,999847
0,606000	0,711365	4,999847
0,607000	0,713196	4,999847
0,608000	0,696259	4,999847
0,609000	0,732117	4,289551
0,610000	0,683441	2,782745
0,611000	0,750122	3,884277
0,612000	0,671387	4,060822
0,613000	0,765839	4,999847
0,614000	0,660858	4,999847
0,615000	0,755157	4,999847
0,616000	0,645905	4,999847
0,617000	0,731049	4,999847
0,618000	0,666962	4,502716
0,619000	0,711670	3,088531
0,620000	0,688324	4,008484
0,621000	0,695496	4,411011
0,622000	0,708160	4,999847
0,623000	0,681305	4,999847
0,624000	0,725861	4,999847
0,625000	0,668945	4,999847
0,626000	0,742645	4,999847
0,627000	0,659027	4,999847
0,628000	0,758209	4,999847
0,629000	0,649719	3,643341
0,630000	0,764160	4,821320
0,631000	0,669861	3,266449
0,632000	0,743561	4,999847
0,633000	0,692444	4,999847
0,634000	0,725555	4,999847
0,635000	0,713959	4,999847
0,636000	0,709381	4,999847
0,637000	0,732269	4,999847
0,638000	0,696869	4,465485
0,639000	0,750885	3,098450
0,640000	0,684509	3,125763
0,641000	0,766449	4,628296
0,642000	0,674438	4,999847
0,643000	0,782013	4,999847
0,644000	0,671692	4,999847
0,645000	0,777130	4,999847
0,646000	0,696259	4,999847
0,647000	0,758514	4,999847
0,648000	0,718994	4,622955
0,649000	0,741730	4,242096
0,650000	0,740051	2,286224
0,651000	0,727234	4,662628
0,652000	0,759125	4,928894
0,653000	0,714264	4,999847
0,654000	0,775452	4,999847
0,655000	0,701599	4,999847
0,656000	0,791626	4,999847
0,657000	0,691681	4,999847
0,658000	0,807037	4,758453
0,659000	0,699615	2,787781
0,660000	0,792694	4,447327
0,661000	0,723724	4,751282
0,662000	0,774841	4,999847
0,663000	0,746155	4,999847
0,664000	0,758820	4,999847
0,665000	0,766144	4,999847
0,666000	0,744934	4,999847
0,667000	0,784454	4,999847
0,668000	0,732269	4,983215
0,669000	0,801849	4,036865
0,670000	0,721130	2,287750
0,671000	0,819397	3,415833
0,672000	0,711517	4,548645
0,673000	0,831451	4,999847
0,674000	0,729523	4,999847
0,675000	0,813293	4,999847
0,676000	0,753021	4,999847
0,677000	0,796509	4,999847
0,678000	0,774384	4,195557
0,679000	0,781708	3,318939
0,680000	0,794678	3,348236
0,681000	0,766754	4,674835
0,682000	0,813446	4,999847
0,683000	0,753784	4,999847
0,684000	0,830994	4,999847
0,685000	0,741882	4,999847
0,686000	0,847168	4,999847
0,687000	0,735168	4,999847
0,688000	0,852203	4,999847
0,689000	0,759430	3,787537
0,690000	0,833435	2,969055
0,691000	0,781708	4,502258
0,692000	0,817566	4,999847
0,693000	0,803375	4,999847
0,694000	0,801086	4,999847
0,695000	0,822601	4,999847
0,696000	0,785370	4,999847
0,697000	0,841064	4,999847
0,698000	0,771332	4,999847
0,699000	0,842438	2,675629
0,700000	0,742645	4,211731
0,701000	0,864868	3,594971
0,702000	0,759277	4,999847
0,703000	0,863647	4,999847
0,704000	0,783844	4,999847
0,705000	0,843658	4,999847
0,706000	0,805359	4,999847
0,707000	0,825500	4,999847
0,708000	0,825500	4,999847
0,709000	0,809326	4,242706
0,710000	0,844574	3,284607
0,711000	0,794067	3,591766
0,712000	0,862274	4,539795
0,713000	0,779572	4,999847
0,714000	0,875549	4,999847
0,715000	0,766296	4,999847
0,716000	0,882568	4,999847
0,717000	0,781097	4,999847
0,718000	0,865784	4,631042
0,719000	0,802765	2,781830
0,720000	0,845642	2,878265
0,721000	0,824127	4,550018
0,722000	0,827789	4,999847
0,723000	0,844574	4,999847
0,724000	0,811768	4,999847
0,725000	0,862122	4,999847
0,726000	0,795593	4,999847
0,727000	0,876465	4,999847
0,728000	0,781403	4,888458
0,729000	0,706940	3,975372
0,730000	0,673218	3,289642
0,731000	0,657654	4,196014
0,732000	0,650482	4,999847
0,733000	0,646973	4,999847
0,734000	0,645599	4,999847
0,735000	0,644379	4,999847
0,736000	0,644226	4,999847
0,737000	0,644073	4,999847
0,738000	0,643921	4,999847
0,739000	0,643463	3,652191
0,740000	0,643311	3,623047
0,741000	0,643463	4,634094
0,742000	0,643768	4,999847
0,743000	0,643768	4,999847
0,744000	0,643005	4,999847
0,745000	0,643158	4,999847
0,746000	0,642853	4,999847
0,747000	0,630493	4,999847
0,748000	0,550690	4,999847
0,749000	0,516815	4,186554
0,750000	0,496826	4,597931
0,751000	0,488586	4,089508
0,752000	0,484772	4,653015
0,753000	0,481720	4,999847
0,754000	0,480499	4,999847
0,755000	0,480652	4,999847
0,756000	0,481567	4,999847
0,757000	0,480042	4,902496
0,758000	0,480499	4,361877
0,759000	0,479736	3,348541
0,760000	0,481262	3,125763
0,761000	0,479584	4,999847
0,762000	0,482025	4,999847
0,763000	0,481110	4,999847
0,764000	0,481873	4,999847
0,765000	0,481262	4,999847
0,766000	0,481873	4,999847
0,767000	0,481720	4,935303
0,768000	0,481567	4,999847
0,769000	0,481720	3,763733
0,770000	0,480804	3,377228
0,771000	0,480804	3,692627
0,772000	0,480194	4,999847
0,773000	0,480194	4,999847
0,774000	0,480194	4,999847
0,775000	0,480194	4,999847
0,776000	0,480499	4,999847
0,777000	0,481110	4,999847
0,778000	0,480347	4,258575
0,779000	0,480194	2,376251
0,780000	0,480194	2,722626
0,781000	0,480499	4,477386
0,782000	0,481262	4,999847
0,783000	0,481567	4,999847
0,784000	0,481262	4,999847
0,785000	0,480194	4,999847
0,786000	0,478058	4,999847
0,787000	0,479736	4,999847
0,788000	0,476837	4,999847
0,789000	0,481110	3,667297
0,790000	0,480957	4,072723
0,791000	0,485840	3,796539
0,792000	0,484619	4,567871
0,793000	0,506592	4,999847
0,794000	0,505524	4,999847
0,795000	0,507355	4,999847
0,796000	0,506439	4,999847
0,797000	0,507050	4,999847
0,798000	0,507812	4,999847
0,799000	0,505219	2,913971
0,800000	0,506287	2,264252
0,801000	0,501556	4,999847
0,802000	0,476532	4,999847
0,803000	0,489655	4,999847
0,804000	0,503998	4,999847
0,805000	0,500793	4,999847
0,806000	0,511169	4,999847
0,807000	0,505066	4,999847
0,808000	0,511627	4,736328
0,809000	0,508728	3,890686
0,810000	0,512390	4,383545
0,811000	0,509796	4,511414
0,812000	0,504303	4,888153
0,813000	0,501251	4,999847
0,814000	0,498657	4,999847
0,815000	0,506897	4,999847
0,816000	0,498199	4,999847
0,817000	0,511322	4,570618
0,818000	0,500336	4,999847
0,819000	0,516815	2,715607
0,820000	0,506897	3,562622
0,821000	0,522003	4,999847
0,822000	0,511780	4,999847
0,823000	0,521393	4,999847
0,824000	0,516815	4,999847
0,825000	0,520477	4,999847
0,826000	0,520630	4,999847
0,827000	0,520935	4,999847
0,828000	0,525208	4,999847
0,829000	0,520477	3,637695
0,830000	0,530090	2,298889
0,831000	0,520477	4,010620
0,832000	0,533600	3,792725
0,833000	0,518494	4,999847
0,834000	0,536652	4,999847
0,835000	0,518188	4,999847
0,836000	0,536652	4,999847
0,837000	0,524292	4,999847
0,838000	0,534210	4,999847
0,839000	0,527802	3,148956
0,840000	0,529938	3,469086
0,841000	0,530853	3,312988
0,842000	0,528717	4,999847
0,843000	0,536804	4,999847
0,844000	0,520630	4,999847
0,845000	0,537567	4,999847
0,846000	0,517883	4,999847
0,847000	0,543213	4,999847
0,848000	0,514526	4,999847
0,849000	0,547333	3,408661
0,850000	0,519562	4,519348
0,851000	0,544739	4,999847
0,852000	0,528717	4,837189
0,853000	0,542450	4,999847
0,854000	0,537567	4,999847
0,855000	0,540161	4,999847
0,856000	0,544891	4,999847
0,857000	0,537262	4,999847
0,858000	0,551147	4,999847
0,859000	0,534058	2,259979
0,860000	0,556641	4,258575
0,861000	0,529938	4,953156
0,862000	0,561829	4,999847
0,863000	0,530090	4,999847
0,864000	0,565338	4,999847
0,865000	0,537415	4,999847
0,866000	0,560455	4,999847
0,867000	0,546112	4,999847
0,868000	0,556946	4,499359
0,869000	0,554504	3,785095
0,870000	0,552368	4,999847
0,871000	0,560760	3,601379
0,872000	0,544891	4,868011
0,873000	0,564728	4,999847
0,874000	0,540161	4,999847
0,875000	0,572662	4,999847
0,876000	0,540009	4,999847
0,877000	0,581207	4,999847
0,878000	0,538177	4,417877
0,879000	0,577698	2,504578
0,880000	0,545349	2,860870
0,881000	0,569916	4,888153
0,882000	0,556335	4,999847
0,883000	0,565338	4,999847
0,884000	0,566864	4,999847
0,885000	0,561218	4,999847
0,886000	0,576477	4,999847
0,887000	0,556641	4,999847
0,888000	0,583954	4,999847
0,889000	0,552979	3,627930
0,890000	0,592499	3,671570
0,891000	0,549622	4,197540
0,892000	0,599670	4,535980
0,893000	0,550690	4,999847
0,894000	0,591125	4,999847
0,895000	0,560913	4,999847
0,896000	0,582733	4,999847
0,897000	0,572357	4,999847
0,898000	0,577087	4,640656
0,899000	0,582581	3,007660
0,900000	0,571442	4,293365
0,901000	0,592804	4,754639
0,902000	0,565186	4,999847
0,903000	0,600891	4,999847
0,904000	0,535736	4,999847
0,905000	0,590973	4,999847
0,906000	0,549927	4,999847
0,907000	0,609589	4,999847
0,908000	0,565033	4,999847
0,909000	0,603790	3,252106
0,910000	0,579834	4,756317
0,911000	0,596161	3,250885
0,912000	0,590515	4,403076
0,913000	0,589142	4,999847
0,914000	0,601044	4,999847
0,915000	0,585632	4,999847
0,916000	0,613403	4,999847
0,917000	0,578003	4,999847
0,918000	0,620728	4,368591
0,919000	0,570221	2,344971
0,920000	0,628357	4,438324
0,921000	0,565948	4,410400
0,922000	0,625153	4,999847
0,923000	0,581818	4,999847
0,924000	0,616302	4,999847
0,925000	0,594940	4,999847
0,926000	0,608215	4,999847
0,927000	0,607758	4,999847
0,928000	0,600128	4,462433
0,929000	0,619049	3,474884
0,930000	0,589905	4,070740
0,931000	0,626373	4,156952
0,932000	0,579681	4,999847
0,933000	0,635071	4,999847
0,934000	0,569000	4,999847
0,935000	0,642548	4,999847
0,936000	0,566864	4,999847
0,937000	0,629272	4,982147
0,938000	0,585175	3,818207
0,939000	0,618134	3,167419
0,940000	0,599976	3,050079
0,941000	0,607910	3,880157
0,942000	0,614471	4,999847
0,943000	0,597839	4,999847
0,944000	0,626984	4,999847
0,945000	0,588074	4,999847
0,946000	0,638733	4,999847
0,947000	0,578613	4,999847
0,948000	0,649261	4,216461
0,949000	0,570679	3,279724
0,950000	0,654144	4,142761
0,951000	0,583038	3,131256
0,952000	0,640869	4,336243
0,953000	0,601807	4,999847
0,954000	0,628052	4,999847
0,955000	0,617371	4,999847
0,956000	0,618591	4,999847
0,957000	0,633850	4,999847
0,958000	0,609131	4,349823
0,959000	0,647583	3,056183
0,960000	0,600281	3,325043
0,961000	0,659637	4,658508
0,962000	0,591278	4,999847
0,963000	0,671082	4,999847
0,964000	0,584869	4,999847
0,965000	0,668793	4,999847
0,966000	0,606689	4,999847
0,967000	0,655518	4,999847
0,968000	0,621643	4,504395
0,969000	0,642090	3,611450
0,970000	0,639954	3,202057
0,971000	0,629883	3,925476
0,972000	0,653687	4,999847
0,973000	0,619965	4,999847
0,974000	0,668182	4,999847
0,975000	0,609131	4,999847
0,976000	0,679321	4,999847
0,977000	0,596924	4,999847
0,978000	0,690155	4,815216
0,979000	0,598297	3,225708
0,980000	0,678406	3,398590
0,981000	0,620880	4,999847
0,982000	0,664062	4,999847
0,983000	0,638733	4,999847
0,984000	0,648193	4,999847
0,985000	0,653534	4,999847
0,986000	0,634613	4,999847
0,987000	0,668945	4,956055
0,988000	0,623322	4,543762
0,989000	0,683289	3,910065
0,990000	0,614014	3,836823
0,991000	0,697784	2,668762
0,992000	0,605011	4,999847
0,993000	0,706787	4,999847
0,994000	0,615540	4,999847
0,995000	0,688019	4,999847
0,996000	0,635986	4,999847
0,997000	0,672150	4,662323
0,998000	0,653992	4,527893
0,999000	0,656738	3,145294

