LabVIEW Measurement	
Writer_Version	2
Reader_Version	2
Separator	Tab
Decimal_Separator	,
Multi_Headings	Yes
X_Columns	One
Time_Pref	Absolute
Operator	d.nicolai
Date	2023/11/09
Time	16:04:05,6565121999996605588
***End_of_Header***	
	
Channels	2		
Samples	1000	1000	
Date	2023/11/09	2023/11/09	
Time	16:04:40,775512899999598941	16:04:40,775512899999598941	
Y_Unit_Label	Volts	Volts	
X_Dimension	Time	Time	
X0	0,0000000000000000E+0	0,0000000000000000E+0	
Delta_X	0,001000	0,001000	
***End_of_Header***			
X_Value	powebox	triggerbox	Comment
0,000000	0,575714	0,643921
0,001000	0,646057	4,577637
0,002000	0,557709	4,535828
0,003000	0,653687	4,999847
0,004000	0,584106	4,999847
0,005000	0,652161	4,999847
0,006000	0,608215	4,999847
0,007000	0,644836	4,999847
0,008000	0,630188	4,999847
0,009000	0,638580	4,403992
0,010000	0,648193	3,841858
0,011000	0,632629	4,412842
0,012000	0,662079	4,170074
0,013000	0,625153	4,999847
0,014000	0,674133	4,999847
0,015000	0,618439	4,999847
0,016000	0,685120	4,999847
0,017000	0,611725	4,999847
0,018000	0,690460	4,297943
0,019000	0,628967	3,651276
0,020000	0,679626	4,190674
0,021000	0,642242	4,345551
0,022000	0,664062	4,041901
0,023000	0,652771	4,999847
0,024000	0,649872	4,999847
0,025000	0,666809	4,999847
0,026000	0,639496	4,999847
0,027000	0,677490	4,999847
0,028000	0,616760	4,597931
0,029000	0,682983	3,595734
0,030000	0,609131	3,907013
0,031000	0,696259	4,124603
0,032000	0,608063	4,863281
0,033000	0,695648	4,999847
0,034000	0,627594	4,999847
0,035000	0,680695	4,999847
0,036000	0,620117	4,999847
0,037000	0,638428	4,999847
0,038000	0,636902	4,999847
0,039000	0,630188	3,546753
0,040000	0,653992	3,253174
0,041000	0,617981	3,485870
0,042000	0,665588	4,999847
0,043000	0,612183	4,999847
0,044000	0,681152	4,999847
0,045000	0,606995	4,999847
0,046000	0,561218	4,999847
0,047000	0,537872	4,999847
0,048000	0,586243	4,999847
0,049000	0,635529	4,268494
0,050000	0,654297	2,875214
0,051000	0,645599	4,999847
0,052000	0,675964	3,647461
0,053000	0,639343	4,999847
0,054000	0,690613	4,999847
0,055000	0,630798	4,999847
0,056000	0,704651	4,999847
0,057000	0,624084	4,999847
0,058000	0,717163	4,999847
0,059000	0,627136	3,382721
0,060000	0,665283	3,614197
0,061000	0,616760	4,434662
0,062000	0,672913	4,934845
0,063000	0,662994	4,999847
0,064000	0,672302	4,999847
0,065000	0,684357	4,999847
0,066000	0,662689	4,999847
0,067000	0,699158	4,999847
0,068000	0,648041	4,999847
0,069000	0,710754	4,221649
0,070000	0,637207	3,103333
0,071000	0,718231	4,993896
0,072000	0,629425	2,980957
0,073000	0,731506	4,999847
0,074000	0,645142	4,999847
0,075000	0,714569	4,999847
0,076000	0,669556	4,999847
0,077000	0,700836	4,999847
0,078000	0,686035	4,925537
0,079000	0,681915	3,121643
0,080000	0,702667	3,592072
0,081000	0,672150	4,999847
0,082000	0,719147	4,311218
0,083000	0,658722	4,999847
0,084000	0,733490	4,999847
0,085000	0,646667	4,999847
0,086000	0,746155	4,999847
0,087000	0,641937	4,999847
0,088000	0,741425	4,999847
0,089000	0,666656	4,514465
0,090000	0,727234	4,562531
0,091000	0,689697	3,523560
0,092000	0,710297	3,880157
0,093000	0,707550	4,999847
0,094000	0,696869	4,999847
0,095000	0,724487	4,999847
0,096000	0,684204	4,999847
0,097000	0,742950	4,999847
0,098000	0,673523	4,999847
0,099000	0,754089	3,840179
0,100000	0,659790	4,101410
0,101000	0,766754	3,450928
0,102000	0,664978	4,759369
0,103000	0,756683	4,999847
0,104000	0,687714	4,999847
0,105000	0,737152	4,999847
0,106000	0,707550	4,999847
0,107000	0,718842	4,999847
0,108000	0,723724	4,999847
0,109000	0,703278	4,067383
0,110000	0,740662	3,794403
0,111000	0,689240	3,762054
0,112000	0,756989	4,054108
0,113000	0,678558	4,999847
0,114000	0,771790	4,999847
0,115000	0,668793	4,999847
0,116000	0,784149	4,999847
0,117000	0,684052	4,999847
0,118000	0,766296	4,517059
0,119000	0,707092	3,968811
0,120000	0,747223	3,014984
0,121000	0,727081	4,446411
0,122000	0,732574	4,999847
0,123000	0,747070	4,999847
0,124000	0,719604	4,999847
0,125000	0,765076	4,999847
0,126000	0,706482	4,999847
0,127000	0,781250	4,999847
0,128000	0,691986	4,999847
0,129000	0,794220	3,813934
0,130000	0,687714	2,995911
0,131000	0,806122	4,399872
0,132000	0,713959	3,149109
0,133000	0,789337	4,999847
0,134000	0,737000	4,999847
0,135000	0,765533	4,999847
0,136000	0,753632	4,999847
0,137000	0,751495	4,999847
0,138000	0,773468	4,999847
0,139000	0,739136	3,531036
0,140000	0,791321	3,462219
0,141000	0,726318	4,025421
0,142000	0,806580	4,999847
0,143000	0,715637	4,999847
0,144000	0,822754	4,999847
0,145000	0,716705	4,999847
0,146000	0,823364	4,999847
0,147000	0,739746	4,999847
0,148000	0,800934	4,999847
0,149000	0,759888	4,370575
0,150000	0,780945	3,493347
0,151000	0,778351	4,108582
0,152000	0,765686	3,857880
0,153000	0,796967	4,707642
0,154000	0,755310	4,999847
0,155000	0,816040	4,999847
0,156000	0,741577	4,999847
0,157000	0,831757	4,999847
0,158000	0,728760	4,815216
0,159000	0,846710	4,416809
0,160000	0,744171	3,693390
0,161000	0,837097	3,478394
0,162000	0,741577	4,969330
0,163000	0,779877	4,999847
0,164000	0,769043	4,999847
0,165000	0,791473	4,999847
0,166000	0,801392	4,999847
0,167000	0,784912	4,999847
0,168000	0,823975	4,946289
0,169000	0,767670	3,883362
0,170000	0,840302	2,806549
0,171000	0,760498	4,103851
0,172000	0,859528	3,807983
0,173000	0,751343	4,985962
0,174000	0,871735	4,999847
0,175000	0,773468	4,999847
0,176000	0,858154	4,999847
0,177000	0,794525	4,999847
0,178000	0,835876	4,999847
0,179000	0,812988	4,481201
0,180000	0,817261	3,018799
0,181000	0,831909	3,774567
0,182000	0,803680	4,999847
0,183000	0,851593	4,999847
0,184000	0,786743	4,999847
0,185000	0,866394	4,999847
0,186000	0,774536	4,999847
0,187000	0,879669	4,999847
0,188000	0,775604	4,999847
0,189000	0,884857	4,831238
0,190000	0,797729	3,964844
0,191000	0,864716	2,919769
0,192000	0,816803	3,092651
0,193000	0,844879	4,936829
0,194000	0,836334	4,999847
0,195000	0,828705	4,999847
0,196000	0,855560	4,999847
0,197000	0,811005	4,999847
0,198000	0,870819	4,313965
0,199000	0,798187	3,418732
0,200000	0,883942	3,919525
0,201000	0,783997	3,687592
0,202000	0,890350	4,090271
0,203000	0,796204	4,999847
0,204000	0,888214	4,999847
0,205000	0,815582	4,999847
0,206000	0,870819	4,999847
0,207000	0,837250	4,999847
0,208000	0,848846	4,999847
0,209000	0,856018	4,075775
0,210000	0,822601	3,666077
0,211000	0,867920	2,629852
0,212000	0,808868	4,170380
0,213000	0,882416	4,999847
0,214000	0,797424	4,999847
0,215000	0,715332	4,999847
0,216000	0,678406	4,999847
0,217000	0,661469	4,999847
0,218000	0,653534	4,027557
0,219000	0,649567	4,367676
0,220000	0,647736	3,100891
0,221000	0,647125	3,548126
0,222000	0,646515	4,999847
0,223000	0,646515	4,999847
0,224000	0,646057	4,999847
0,225000	0,646210	4,999847
0,226000	0,645752	4,999847
0,227000	0,645294	4,999847
0,228000	0,645142	4,999847
0,229000	0,645447	4,220886
0,230000	0,645447	3,449402
0,231000	0,645447	3,399506
0,232000	0,645752	4,058533
0,233000	0,645447	4,999847
0,234000	0,645599	4,999847
0,235000	0,645294	4,999847
0,236000	0,608215	4,999847
0,237000	0,567474	4,999847
0,238000	0,547028	4,999847
0,239000	0,538940	4,386139
0,240000	0,530243	4,140778
0,241000	0,531769	3,285065
0,242000	0,528564	4,734497
0,243000	0,528717	4,999847
0,244000	0,521851	4,999847
0,245000	0,531921	4,999847
0,246000	0,540771	4,999847
0,247000	0,547028	4,999847
0,248000	0,548706	4,984741
0,249000	0,546570	4,818878
0,250000	0,547333	2,751617
0,251000	0,548859	4,999847
0,252000	0,550995	3,656616
0,253000	0,551300	4,999847
0,254000	0,555115	4,999847
0,255000	0,553284	4,999847
0,256000	0,551910	4,999847
0,257000	0,546112	4,999847
0,258000	0,545044	4,999847
0,259000	0,546570	3,081512
0,260000	0,548553	3,347321
0,261000	0,547333	4,141846
0,262000	0,543518	4,999847
0,263000	0,542603	4,999847
0,264000	0,538483	4,999847
0,265000	0,515137	4,999847
0,266000	0,525360	4,999847
0,267000	0,527496	4,999847
0,268000	0,526123	4,999847
0,269000	0,527954	4,219666
0,270000	0,525818	2,653961
0,271000	0,532379	4,839478
0,272000	0,528870	4,569397
0,273000	0,530853	4,999847
0,274000	0,527344	4,999847
0,275000	0,530701	4,999847
0,276000	0,529633	4,999847
0,277000	0,537109	4,999847
0,278000	0,531769	4,999847
0,279000	0,529938	4,072266
0,280000	0,534363	3,378906
0,281000	0,536804	3,653717
0,282000	0,536194	4,999847
0,283000	0,535431	4,999847
0,284000	0,538177	4,999847
0,285000	0,534821	4,999847
0,286000	0,530090	4,999847
0,287000	0,527649	4,999847
0,288000	0,531311	4,999847
0,289000	0,526886	3,846741
0,290000	0,517578	3,740540
0,291000	0,518646	4,311676
0,292000	0,519257	3,703461
0,293000	0,519562	4,999847
0,294000	0,527496	4,999847
0,295000	0,526886	4,999847
0,296000	0,527954	4,999847
0,297000	0,534821	4,999847
0,298000	0,536957	4,576111
0,299000	0,541077	3,995972
0,300000	0,541840	3,266144
0,301000	0,547028	4,999847
0,302000	0,545959	4,999847
0,303000	0,552826	4,999847
0,304000	0,549774	4,999847
0,305000	0,548096	4,999847
0,306000	0,546112	4,999847
0,307000	0,546265	4,999847
0,308000	0,543060	4,936066
0,309000	0,540314	4,074707
0,310000	0,539093	4,130096
0,311000	0,535431	4,999847
0,312000	0,536652	3,402557
0,313000	0,535583	4,874725
0,314000	0,536652	4,999847
0,315000	0,533295	4,999847
0,316000	0,530548	4,999847
0,317000	0,532684	4,999847
0,318000	0,530853	4,999847
0,319000	0,517883	3,725281
0,320000	0,480347	2,361755
0,321000	0,512695	4,783173
0,322000	0,530090	4,210510
0,323000	0,546570	4,999847
0,324000	0,546875	4,999847
0,325000	0,545502	4,999847
0,326000	0,546112	4,999847
0,327000	0,542908	4,999847
0,328000	0,549774	4,999847
0,329000	0,524902	4,797058
0,330000	0,538940	3,096771
0,331000	0,529327	4,999847
0,332000	0,543976	3,043823
0,333000	0,539551	4,999847
0,334000	0,550537	4,999847
0,335000	0,553131	4,999847
0,336000	0,561218	4,999847
0,337000	0,565491	4,999847
0,338000	0,564117	4,608459
0,339000	0,565948	3,064270
0,340000	0,567017	3,182068
0,341000	0,575409	4,440460
0,342000	0,569305	4,999847
0,343000	0,574188	4,999847
0,344000	0,567780	4,999847
0,345000	0,575562	4,999847
0,346000	0,565796	4,999847
0,347000	0,573273	4,999847
0,348000	0,567169	4,999847
0,349000	0,573425	3,620148
0,350000	0,570221	2,725983
0,351000	0,568695	4,999847
0,352000	0,570831	2,962952
0,353000	0,568237	4,999847
0,354000	0,574799	4,999847
0,355000	0,570068	4,999847
0,356000	0,579529	4,999847
0,357000	0,565948	4,999847
0,358000	0,581055	4,324341
0,359000	0,565948	3,247528
0,360000	0,585175	3,018951
0,361000	0,567627	4,051819
0,362000	0,583038	4,999847
0,363000	0,571594	4,999847
0,364000	0,579681	4,999847
0,365000	0,574799	4,999847
0,366000	0,578308	4,999847
0,367000	0,548096	4,999847
0,368000	0,528259	4,999847
0,369000	0,563812	4,385681
0,370000	0,563812	3,290253
0,371000	0,584412	4,118195
0,372000	0,562286	3,642426
0,373000	0,593109	4,999847
0,374000	0,564880	4,999847
0,375000	0,596313	4,999847
0,376000	0,577850	4,999847
0,377000	0,594330	4,999847
0,378000	0,583038	4,117432
0,379000	0,590210	2,799072
0,380000	0,587006	3,877258
0,381000	0,589142	2,735748
0,382000	0,595398	4,999847
0,383000	0,585480	4,999847
0,384000	0,599060	4,999847
0,385000	0,580139	4,999847
0,386000	0,605469	4,999847
0,387000	0,586700	4,999847
0,388000	0,615692	4,439240
0,389000	0,578156	3,809052
0,390000	0,610962	4,839325
0,391000	0,591431	4,147186
0,392000	0,610504	2,882996
0,393000	0,599976	4,999847
0,394000	0,604858	4,999847
0,395000	0,605927	4,999847
0,396000	0,603027	4,999847
0,397000	0,614624	4,999847
0,398000	0,599365	4,492798
0,399000	0,619812	3,770599
0,400000	0,590820	4,592743
0,401000	0,622406	3,637238
0,402000	0,590820	4,559174
0,403000	0,630035	4,999847
0,404000	0,595093	4,999847
0,405000	0,626068	4,999847
0,406000	0,607452	4,999847
0,407000	0,621490	4,999847
0,408000	0,612640	4,700012
0,409000	0,616913	4,105530
0,410000	0,621796	3,351135
0,411000	0,609283	4,663239
0,412000	0,626526	4,094543
0,413000	0,605927	4,999847
0,414000	0,634003	4,999847
0,415000	0,601807	4,999847
0,416000	0,641327	4,999847
0,417000	0,597229	4,999847
0,418000	0,643158	4,483032
0,419000	0,603790	3,743134
0,420000	0,635223	3,719635
0,421000	0,615540	2,601013
0,422000	0,630646	4,306030
0,423000	0,626984	4,999847
0,424000	0,626831	4,999847
0,425000	0,636139	4,999847
0,426000	0,624542	4,999847
0,427000	0,646667	4,999847
0,428000	0,620270	4,999847
0,429000	0,654449	4,143524
0,430000	0,613708	3,856812
0,431000	0,659943	4,180298
0,432000	0,613708	4,465179
0,433000	0,658875	4,999847
0,434000	0,624847	4,999847
0,435000	0,649567	4,999847
0,436000	0,631714	4,999847
0,437000	0,640869	4,999847
0,438000	0,639801	4,875031
0,439000	0,634460	3,890533
0,440000	0,650330	3,071442
0,441000	0,626526	3,578796
0,442000	0,657806	4,999847
0,443000	0,615845	4,999847
0,444000	0,664062	4,999847
0,445000	0,609436	4,999847
0,446000	0,671844	4,999847
0,447000	0,617676	4,999847
0,448000	0,664520	4,757080
0,449000	0,630188	4,999847
0,450000	0,655212	3,373413
0,451000	0,641785	4,248505
0,452000	0,646210	4,085693
0,453000	0,651550	4,999847
0,454000	0,639343	4,999847
0,455000	0,663605	4,999847
0,456000	0,631561	4,999847
0,457000	0,672302	4,999847
0,458000	0,618896	4,379272
0,459000	0,679474	4,231720
0,460000	0,609131	4,426727
0,461000	0,681458	3,603210
0,462000	0,610046	4,999847
0,463000	0,661316	4,999847
0,464000	0,621643	4,999847
0,465000	0,647736	4,999847
0,466000	0,639038	4,999847
0,467000	0,634460	4,999847
0,468000	0,646820	4,999847
0,469000	0,602264	4,253845
0,470000	0,628967	3,340912
0,471000	0,595398	3,875732
0,472000	0,664062	3,771057
0,473000	0,599213	4,999847
0,474000	0,683594	4,999847
0,475000	0,592194	4,999847
0,476000	0,677948	4,999847
0,477000	0,615082	4,999847
0,478000	0,668793	4,251556
0,479000	0,642853	4,297180
0,480000	0,661926	4,331818
0,481000	0,661774	3,030396
0,482000	0,655518	4,999847
0,483000	0,593719	4,999847
0,484000	0,569611	4,999847
0,485000	0,559845	4,999847
0,486000	0,668945	4,999847
0,487000	0,618591	4,999847
0,488000	0,707703	4,999847
0,489000	0,641174	4,326477
0,490000	0,703278	3,618469
0,491000	0,659027	4,916992
0,492000	0,690002	4,860229
0,493000	0,675201	4,999847
0,494000	0,678864	4,999847
0,495000	0,687103	4,999847
0,496000	0,664520	4,999847
0,497000	0,696564	4,999847
0,498000	0,651550	4,348755
0,499000	0,709381	3,540802
0,500000	0,639954	3,120270
0,501000	0,718079	4,172821
0,502000	0,625153	4,999847
0,503000	0,718536	4,999847
0,504000	0,641327	4,999847
0,505000	0,702209	4,999847
0,506000	0,659332	4,999847
0,507000	0,681458	4,999847
0,508000	0,670319	4,810791
0,509000	0,664368	4,888306
0,510000	0,686646	3,317719
0,511000	0,656281	4,976807
0,512000	0,705719	3,804169
0,513000	0,643463	4,999847
0,514000	0,717621	4,999847
0,515000	0,625610	4,999847
0,516000	0,727081	4,999847
0,517000	0,626221	4,999847
0,518000	0,721893	4,446259
0,519000	0,650635	4,055786
0,520000	0,706635	3,278809
0,521000	0,674591	4,262695
0,522000	0,695190	4,844818
0,523000	0,695343	4,999847
0,524000	0,682220	4,999847
0,525000	0,712280	4,999847
0,526000	0,668945	4,999847
0,527000	0,727844	4,999847
0,528000	0,657501	4,904175
0,529000	0,742035	4,999847
0,530000	0,649414	3,013306
0,531000	0,755615	3,776093
0,532000	0,656281	3,831482
0,533000	0,742950	4,999847
0,534000	0,678864	4,999847
0,535000	0,726318	4,999847
0,536000	0,699921	4,999847
0,537000	0,710602	4,999847
0,538000	0,718689	4,761353
0,539000	0,699921	4,308319
0,540000	0,737457	3,226929
0,541000	0,687561	3,506317
0,542000	0,752258	4,999847
0,543000	0,675049	4,999847
0,544000	0,765533	4,999847
0,545000	0,659332	4,999847
0,546000	0,774231	4,999847
0,547000	0,679626	4,999847
0,548000	0,754547	4,999847
0,549000	0,698547	4,449310
0,550000	0,733337	3,169403
0,551000	0,718079	4,404602
0,552000	0,719604	3,968658
0,553000	0,737610	4,999847
0,554000	0,706635	4,999847
0,555000	0,755768	4,999847
0,556000	0,695648	4,999847
0,557000	0,771790	4,999847
0,558000	0,683746	4,592590
0,559000	0,785828	4,286194
0,560000	0,679932	3,885040
0,561000	0,794678	3,302155
0,562000	0,705872	4,488983
0,563000	0,777130	4,999847
0,564000	0,729218	4,999847
0,565000	0,757904	4,999847
0,566000	0,747528	4,999847
0,567000	0,742493	4,999847
0,568000	0,766296	4,873505
0,569000	0,727386	4,019623
0,570000	0,782013	4,184570
0,571000	0,711517	4,045868
0,572000	0,768433	3,014069
0,573000	0,687714	4,999847
0,574000	0,804596	4,999847
0,575000	0,701752	4,999847
0,576000	0,806580	4,999847
0,577000	0,729065	4,999847
0,578000	0,787659	4,999847
0,579000	0,750427	3,823242
0,580000	0,772400	4,562073
0,581000	0,771027	4,821320
0,582000	0,753326	4,999847
0,583000	0,786896	4,999847
0,584000	0,734253	4,999847
0,585000	0,801086	4,999847
0,586000	0,721893	4,999847
0,587000	0,816956	4,999847
0,588000	0,713654	4,999847
0,589000	0,833282	4,154205
0,590000	0,732117	3,476562
0,591000	0,817719	4,999847
0,592000	0,752869	4,698639
0,593000	0,797272	4,999847
0,594000	0,772552	4,999847
0,595000	0,775604	4,999847
0,596000	0,790100	4,999847
0,597000	0,763855	4,999847
0,598000	0,809174	4,999847
0,599000	0,751038	3,135223
0,600000	0,827026	3,193512
0,601000	0,738068	4,085999
0,602000	0,842743	4,999847
0,603000	0,731506	4,999847
0,604000	0,854645	4,999847
0,605000	0,759277	4,999847
0,606000	0,837402	4,999847
0,607000	0,781708	4,999847
0,608000	0,821991	4,999847
0,609000	0,802307	3,664093
0,610000	0,806732	3,319550
0,611000	0,822906	4,999847
0,612000	0,788422	4,073029
0,613000	0,839691	4,999847
0,614000	0,775757	4,999847
0,615000	0,857391	4,999847
0,616000	0,762939	4,999847
0,617000	0,872040	4,999847
0,618000	0,761566	4,999847
0,619000	0,875702	3,298035
0,620000	0,788269	4,201355
0,621000	0,852051	4,483032
0,622000	0,806885	4,793396
0,623000	0,830078	4,999847
0,624000	0,825653	4,999847
0,625000	0,814667	4,999847
0,626000	0,844727	4,999847
0,627000	0,796509	4,999847
0,628000	0,861511	4,999847
0,629000	0,780792	4,549103
0,630000	0,875092	3,908691
0,631000	0,768280	4,999847
0,632000	0,884094	4,209442
0,633000	0,780182	4,999847
0,634000	0,867920	4,999847
0,635000	0,801849	4,999847
0,636000	0,848083	4,999847
0,637000	0,822906	4,999847
0,638000	0,828552	4,999847
0,639000	0,842133	2,885437
0,640000	0,814972	4,309845
0,641000	0,861969	4,073029
0,642000	0,800171	4,065704
0,643000	0,877380	4,999847
0,644000	0,785217	4,999847
0,645000	0,887146	4,999847
0,646000	0,774231	4,999847
0,647000	0,887604	4,999847
0,648000	0,795898	4,999847
0,649000	0,867920	4,800415
0,650000	0,819550	3,285065
0,651000	0,854492	4,482117
0,652000	0,744476	4,231873
0,653000	0,691986	4,999847
0,654000	0,667572	4,999847
0,655000	0,656433	4,999847
0,656000	0,651093	4,999847
0,657000	0,648499	4,999847
0,658000	0,647583	4,467926
0,659000	0,646362	3,699493
0,660000	0,646210	4,071960
0,661000	0,645905	3,357544
0,662000	0,646057	4,244080
0,663000	0,645905	4,999847
0,664000	0,646057	4,999847
0,665000	0,645752	4,999847
0,666000	0,645294	4,999847
0,667000	0,645447	4,999847
0,668000	0,645599	4,999847
0,669000	0,645294	4,667511
0,670000	0,645599	3,876953
0,671000	0,645294	4,659576
0,672000	0,645599	3,132324
0,673000	0,637054	4,999847
0,674000	0,564880	4,999847
0,675000	0,556488	4,999847
0,676000	0,553284	4,999847
0,677000	0,551758	4,999847
0,678000	0,547333	4,736481
0,679000	0,538788	4,010773
0,680000	0,539398	4,325562
0,681000	0,539703	2,901764
0,682000	0,533752	4,795074
0,683000	0,531464	4,999847
0,684000	0,534668	4,999847
0,685000	0,531616	4,999847
0,686000	0,536957	4,999847
0,687000	0,535126	4,999847
0,688000	0,535431	4,999847
0,689000	0,535736	4,730530
0,690000	0,534363	3,350372
0,691000	0,527649	4,501343
0,692000	0,527802	4,886932
0,693000	0,532379	4,999847
0,694000	0,532837	4,999847
0,695000	0,532379	4,999847
0,696000	0,529633	4,999847
0,697000	0,530853	4,999847
0,698000	0,528564	4,999847
0,699000	0,533295	3,677063
0,700000	0,529785	3,897095
0,701000	0,529938	4,334412
0,702000	0,528717	4,999847
0,703000	0,532379	4,999847
0,704000	0,531311	4,999847
0,705000	0,533295	4,999847
0,706000	0,529785	4,999847
0,707000	0,528412	4,999847
0,708000	0,534210	4,601288
0,709000	0,538788	4,017181
0,710000	0,539246	3,122711
0,711000	0,539246	4,999847
0,712000	0,541534	4,795532
0,713000	0,533600	4,999847
0,714000	0,533905	4,999847
0,715000	0,529785	4,999847
0,716000	0,527344	4,999847
0,717000	0,523834	4,999847
0,718000	0,527954	4,999847
0,719000	0,530243	3,408356
0,720000	0,534058	3,296051
0,721000	0,531921	4,249115
0,722000	0,535583	4,999847
0,723000	0,537109	4,999847
0,724000	0,538025	4,999847
0,725000	0,540924	4,999847
0,726000	0,540619	4,999847
0,727000	0,542603	4,999847
0,728000	0,545197	4,999847
0,729000	0,548553	4,394226
0,730000	0,543060	3,465424
0,731000	0,546265	3,774872
0,732000	0,541687	4,173584
0,733000	0,544739	4,961700
0,734000	0,541687	4,999847
0,735000	0,539703	4,999847
0,736000	0,537262	4,999847
0,737000	0,536041	4,999847
0,738000	0,535583	4,589691
0,739000	0,534210	3,981323
0,740000	0,537415	2,566833
0,741000	0,536652	3,931122
0,742000	0,539551	4,999847
0,743000	0,536652	4,999847
0,744000	0,539093	4,999847
0,745000	0,537262	4,999847
0,746000	0,540771	4,999847
0,747000	0,536957	4,999847
0,748000	0,538483	4,999847
0,749000	0,536652	4,228973
0,750000	0,541229	3,070831
0,751000	0,541077	4,753571
0,752000	0,544739	3,968506
0,753000	0,559082	4,999847
0,754000	0,560760	4,999847
0,755000	0,554962	4,999847
0,756000	0,558624	4,999847
0,757000	0,548248	4,999847
0,758000	0,558929	4,999847
0,759000	0,561829	4,058075
0,760000	0,565186	3,772125
0,761000	0,564270	4,338379
0,762000	0,567017	4,685822
0,763000	0,566711	4,999847
0,764000	0,567932	4,999847
0,765000	0,563965	4,999847
0,766000	0,562439	4,999847
0,767000	0,564117	4,999847
0,768000	0,566559	4,999847
0,769000	0,570526	4,117737
0,770000	0,568085	3,097687
0,771000	0,572510	4,537201
0,772000	0,568542	3,957367
0,773000	0,575714	4,999847
0,774000	0,565796	4,999847
0,775000	0,575104	4,999847
0,776000	0,557709	4,999847
0,777000	0,542450	4,999847
0,778000	0,549011	4,999847
0,779000	0,564880	4,283752
0,780000	0,570984	3,470612
0,781000	0,574951	3,126526
0,782000	0,579529	4,624023
0,783000	0,575409	4,999847
0,784000	0,583038	4,999847
0,785000	0,577698	4,999847
0,786000	0,586395	4,999847
0,787000	0,567627	4,999847
0,788000	0,584564	4,999847
0,789000	0,568085	4,141693
0,790000	0,584564	3,877258
0,791000	0,567017	4,999847
0,792000	0,584106	4,040680
0,793000	0,582733	4,999847
0,794000	0,587616	4,999847
0,795000	0,589447	4,999847
0,796000	0,588531	4,999847
0,797000	0,594025	4,999847
0,798000	0,585175	4,999847
0,799000	0,594635	4,139862
0,800000	0,578308	3,661194
0,801000	0,597687	3,903046
0,802000	0,579834	4,825439
0,803000	0,603943	4,999847
0,804000	0,584869	4,999847
0,805000	0,603485	4,999847
0,806000	0,590363	4,999847
0,807000	0,600891	4,999847
0,808000	0,597534	4,833984
0,809000	0,600586	4,999847
0,810000	0,604248	3,428192
0,811000	0,598602	4,538422
0,812000	0,609436	3,488159
0,813000	0,595245	4,871674
0,814000	0,612793	4,999847
0,815000	0,582733	4,999847
0,816000	0,612335	4,999847
0,817000	0,570526	4,999847
0,818000	0,610199	4,979553
0,819000	0,582733	3,573151
0,820000	0,607910	3,660431
0,821000	0,594025	3,739319
0,822000	0,607147	4,999847
0,823000	0,603485	4,999847
0,824000	0,602417	4,999847
0,825000	0,609436	4,999847
0,826000	0,595093	4,999847
0,827000	0,613251	4,999847
0,828000	0,594330	4,999847
0,829000	0,623474	4,539948
0,830000	0,592346	3,275909
0,831000	0,630188	4,673462
0,832000	0,589294	3,746796
0,833000	0,628967	4,999847
0,834000	0,604401	4,999847
0,835000	0,626068	4,999847
0,836000	0,611877	4,999847
0,837000	0,619049	4,999847
0,838000	0,617065	4,930878
0,839000	0,611420	3,630981
0,840000	0,623322	3,618774
0,841000	0,606384	2,764740
0,842000	0,631409	4,999847
0,843000	0,598755	4,999847
0,844000	0,638275	4,999847
0,845000	0,591583	4,999847
0,846000	0,643311	4,999847
0,847000	0,590668	4,999847
0,848000	0,635834	4,988861
0,849000	0,602875	4,114685
0,850000	0,623169	3,336182
0,851000	0,600739	4,146118
0,852000	0,612946	4,879913
0,853000	0,621490	4,999847
0,854000	0,617676	4,999847
0,855000	0,639496	4,999847
0,856000	0,620117	4,999847
0,857000	0,652466	4,999847
0,858000	0,617828	4,611816
0,859000	0,661469	3,809814
0,860000	0,604706	4,331207
0,861000	0,661774	4,322052
0,862000	0,610199	4,908905
0,863000	0,653076	4,999847
0,864000	0,628662	4,999847
0,865000	0,647736	4,999847
0,866000	0,640411	4,999847
0,867000	0,645142	4,999847
0,868000	0,655060	4,999847
0,869000	0,637970	3,527222
0,870000	0,663757	3,418121
0,871000	0,632477	4,925232
0,872000	0,671387	4,416351
0,873000	0,623474	4,999847
0,874000	0,677948	4,999847
0,875000	0,621948	4,999847
0,876000	0,679932	4,999847
0,877000	0,637207	4,999847
0,878000	0,672760	4,634399
0,879000	0,617523	4,285126
0,880000	0,637207	3,811340
0,881000	0,647888	4,112549
0,882000	0,643768	4,652863
0,883000	0,664520	4,999847
0,884000	0,638428	4,999847
0,885000	0,672913	4,999847
0,886000	0,625153	4,999847
0,887000	0,680084	4,999847
0,888000	0,623627	4,999847
0,889000	0,693207	4,650116
0,890000	0,625763	3,364410
0,891000	0,686493	4,454041
0,892000	0,642242	3,921661
0,893000	0,676880	4,999847
0,894000	0,654449	4,999847
0,895000	0,661926	4,999847
0,896000	0,666351	4,999847
0,897000	0,652924	4,999847
0,898000	0,679169	4,689484
0,899000	0,642700	3,444366
0,900000	0,688782	3,563538
0,901000	0,636444	3,254547
0,902000	0,700989	4,676208
0,903000	0,625305	4,999847
0,904000	0,707245	4,999847
0,905000	0,631409	4,999847
0,906000	0,692291	4,999847
0,907000	0,647736	4,999847
0,908000	0,679932	4,999847
0,909000	0,664825	4,654541
0,910000	0,667877	3,419647
0,911000	0,680389	4,497528
0,912000	0,657806	3,443451
0,913000	0,694122	4,999847
0,914000	0,647736	4,999847
0,915000	0,704651	4,999847
0,916000	0,633850	4,999847
0,917000	0,715637	4,999847
0,918000	0,628510	4,896393
0,919000	0,718079	3,176422
0,920000	0,623932	3,828583
0,921000	0,579681	3,972321
0,922000	0,561523	4,999847
0,923000	0,600891	4,999847
0,924000	0,654449	4,999847
0,925000	0,661316	4,999847
0,926000	0,630035	4,999847
0,927000	0,652313	4,999847
0,928000	0,625305	4,999847
0,929000	0,672455	4,581451
0,930000	0,617981	3,435059
0,931000	0,686798	2,917023
0,932000	0,609894	4,029846
0,933000	0,699005	4,999847
0,934000	0,609131	4,999847
0,935000	0,693207	4,999847
0,936000	0,627441	4,999847
0,937000	0,674286	4,999847
0,938000	0,638580	4,795532
0,939000	0,657196	3,204956
0,940000	0,660248	3,525696
0,941000	0,644836	3,557892
0,942000	0,676117	4,999847
0,943000	0,632172	4,999847
0,944000	0,690155	4,999847
0,945000	0,615692	4,999847
0,946000	0,701141	4,999847
0,947000	0,610962	4,999847
0,948000	0,716400	4,999847
0,949000	0,617218	4,169006
0,950000	0,698090	3,161011
0,951000	0,639648	3,450775
0,952000	0,683289	4,456635
0,953000	0,661011	4,999847
0,954000	0,671082	4,999847
0,955000	0,683136	4,999847
0,956000	0,659637	4,999847
0,957000	0,700073	4,999847
0,958000	0,649872	4,999847
0,959000	0,717010	4,126129
0,960000	0,642090	3,443604
0,961000	0,736542	2,916718
0,962000	0,635681	4,933929
0,963000	0,732117	4,999847
0,964000	0,640869	4,999847
0,965000	0,706787	4,999847
0,966000	0,661774	4,999847
0,967000	0,688629	4,999847
0,968000	0,682526	4,999847
0,969000	0,683899	4,667358
0,970000	0,709076	3,570099
0,971000	0,680237	3,273926
0,972000	0,729828	4,633636
0,973000	0,669250	4,999847
0,974000	0,744781	4,999847
0,975000	0,661316	4,999847
0,976000	0,759735	4,999847
0,977000	0,659485	4,999847
0,978000	0,764465	4,828644
0,979000	0,682831	3,674164
0,980000	0,744629	3,465576
0,981000	0,685120	3,643188
0,982000	0,691986	4,999847
0,983000	0,706940	4,999847
0,984000	0,707550	4,999847
0,985000	0,737305	4,999847
0,986000	0,698547	4,999847
0,987000	0,756073	4,999847
0,988000	0,688782	4,999847
0,989000	0,770111	4,999847
0,990000	0,674133	2,837830
0,991000	0,782928	3,602142
0,992000	0,679474	4,454498
0,993000	0,774231	4,916840
0,994000	0,701599	4,999847
0,995000	0,751495	4,999847
0,996000	0,720520	4,999847
0,997000	0,735016	4,999847
0,998000	0,740204	4,999847
0,999000	0,717926	4,277954

