LabVIEW Measurement	
Writer_Version	2
Reader_Version	2
Separator	Tab
Decimal_Separator	,
Multi_Headings	Yes
X_Columns	One
Time_Pref	Absolute
Operator	d.nicolai
Date	2023/11/09
Time	16:04:05,6565121999996605588
***End_of_Header***	
	
Channels	2		
Samples	1000	1000	
Date	2023/11/09	2023/11/09	
Time	16:04:36,5225138999997299424	16:04:36,5225138999997299424	
Y_Unit_Label	Volts	Volts	
X_Dimension	Time	Time	
X0	0,0000000000000000E+0	0,0000000000000000E+0	
Delta_X	0,001000	0,001000	
***End_of_Header***			
X_Value	powebox	triggerbox	Comment
0,000000	0,731201	0,751190
0,001000	0,756531	4,258575
0,002000	0,750427	4,066162
0,003000	0,745697	4,999847
0,004000	0,771332	4,999847
0,005000	0,732117	4,999847
0,006000	0,787659	4,999847
0,007000	0,718536	4,964294
0,008000	0,801849	4,230347
0,009000	0,707855	3,333130
0,010000	0,796661	3,937988
0,011000	0,684204	3,106689
0,012000	0,794678	4,967957
0,013000	0,727539	4,999847
0,014000	0,788116	4,999847
0,015000	0,754395	4,999847
0,016000	0,773315	4,999847
0,017000	0,775604	4,999847
0,018000	0,762634	4,999847
0,019000	0,794830	4,727783
0,020000	0,747375	4,576263
0,021000	0,810089	3,812561
0,022000	0,735016	3,592682
0,023000	0,826416	4,999847
0,024000	0,721283	4,999847
0,025000	0,839844	4,999847
0,026000	0,738678	4,999847
0,027000	0,830383	4,999847
0,028000	0,761871	4,999847
0,029000	0,812531	2,734985
0,030000	0,783386	2,526245
0,031000	0,791321	3,586731
0,032000	0,800171	4,999847
0,033000	0,778961	4,999847
0,034000	0,819397	4,999847
0,035000	0,762024	4,999847
0,036000	0,835266	4,999847
0,037000	0,749359	4,999847
0,038000	0,851288	4,999847
0,039000	0,746002	4,379578
0,040000	0,865936	4,403839
0,041000	0,770569	4,203491
0,042000	0,852203	4,895172
0,043000	0,791779	4,999847
0,044000	0,832672	4,999847
0,045000	0,810852	4,999847
0,046000	0,814972	4,999847
0,047000	0,829620	4,999847
0,048000	0,798492	4,549713
0,049000	0,847626	3,279724
0,050000	0,787354	3,713989
0,051000	0,866241	4,082336
0,052000	0,771332	4,804230
0,053000	0,879059	4,999847
0,054000	0,773926	4,999847
0,055000	0,880127	4,999847
0,056000	0,792847	4,999847
0,057000	0,857239	4,999847
0,058000	0,812378	4,999847
0,059000	0,835419	4,185181
0,060000	0,830536	4,073792
0,061000	0,817261	3,677063
0,062000	0,849152	3,320312
0,063000	0,806580	4,999847
0,064000	0,869446	4,999847
0,065000	0,791321	4,999847
0,066000	0,883484	4,999847
0,067000	0,779114	4,999847
0,068000	0,892792	4,870605
0,069000	0,793915	3,616180
0,070000	0,892334	3,739929
0,071000	0,818329	4,007263
0,072000	0,870667	3,750000
0,073000	0,838165	4,999847
0,074000	0,850220	4,999847
0,075000	0,857391	4,999847
0,076000	0,839386	4,999847
0,077000	0,877838	4,999847
0,078000	0,821228	4,809570
0,079000	0,889435	4,336548
0,080000	0,807800	3,565674
0,081000	0,896912	4,284515
0,082000	0,798645	3,129578
0,083000	0,899963	4,999847
0,084000	0,820312	4,999847
0,085000	0,897217	4,999847
0,086000	0,843811	4,999847
0,087000	0,879211	4,999847
0,088000	0,860138	4,999847
0,089000	0,862122	3,340759
0,090000	0,879211	2,301178
0,091000	0,843048	4,046936
0,092000	0,739746	4,675293
0,093000	0,691681	4,999847
0,094000	0,669250	4,999847
0,095000	0,659332	4,999847
0,096000	0,654755	4,999847
0,097000	0,652466	4,999847
0,098000	0,651093	4,999847
0,099000	0,650635	4,577332
0,100000	0,649872	3,002777
0,101000	0,650177	4,721527
0,102000	0,650177	3,493042
0,103000	0,650177	4,999847
0,104000	0,650024	4,999847
0,105000	0,650024	4,999847
0,106000	0,650177	4,999847
0,107000	0,650330	4,999847
0,108000	0,650482	4,999847
0,109000	0,650177	4,087524
0,110000	0,649872	2,346344
0,111000	0,650330	4,999847
0,112000	0,624542	4,999847
0,113000	0,558167	4,999847
0,114000	0,561218	4,999847
0,115000	0,569000	4,999847
0,116000	0,570526	4,999847
0,117000	0,572968	4,999847
0,118000	0,575104	4,999847
0,119000	0,576935	3,702698
0,120000	0,576172	3,334198
0,121000	0,576172	4,742737
0,122000	0,573425	3,554687
0,123000	0,571594	4,999847
0,124000	0,570679	4,999847
0,125000	0,574341	4,999847
0,126000	0,574341	4,999847
0,127000	0,576477	4,999847
0,128000	0,578766	4,705505
0,129000	0,581360	3,207092
0,130000	0,579834	2,555084
0,131000	0,577393	4,744568
0,132000	0,575256	4,837799
0,133000	0,572815	4,999847
0,134000	0,572357	4,999847
0,135000	0,570526	4,999847
0,136000	0,570374	4,999847
0,137000	0,566101	4,999847
0,138000	0,566559	4,999847
0,139000	0,568390	4,634857
0,140000	0,573120	2,575836
0,141000	0,574646	4,596252
0,142000	0,576935	3,078766
0,143000	0,575256	4,999847
0,144000	0,572357	4,999847
0,145000	0,572968	4,999847
0,146000	0,572510	4,999847
0,147000	0,574188	4,999847
0,148000	0,573120	4,855652
0,149000	0,575409	4,199982
0,150000	0,577393	2,845917
0,151000	0,576630	4,134064
0,152000	0,574341	4,766541
0,153000	0,573273	4,999847
0,154000	0,569763	4,999847
0,155000	0,569458	4,999847
0,156000	0,570526	4,999847
0,157000	0,572052	4,999847
0,158000	0,573425	4,999847
0,159000	0,572357	3,830109
0,160000	0,563507	4,346008
0,161000	0,556793	3,594208
0,162000	0,556183	3,236237
0,163000	0,554352	4,999847
0,164000	0,559692	4,999847
0,165000	0,567169	4,999847
0,166000	0,569763	4,999847
0,167000	0,567932	4,999847
0,168000	0,571289	4,759674
0,169000	0,568695	4,275818
0,170000	0,554504	2,156525
0,171000	0,554352	4,384308
0,172000	0,556488	4,972076
0,173000	0,559540	4,999847
0,174000	0,555267	4,999847
0,175000	0,553589	4,999847
0,176000	0,553741	4,999847
0,177000	0,552826	4,999847
0,178000	0,552368	4,478302
0,179000	0,555725	4,761505
0,180000	0,554047	3,037262
0,181000	0,555420	4,451141
0,182000	0,554199	3,918762
0,183000	0,559387	4,999847
0,184000	0,559540	4,999847
0,185000	0,562439	4,999847
0,186000	0,558624	4,999847
0,187000	0,560455	4,999847
0,188000	0,560608	4,999847
0,189000	0,564728	2,919769
0,190000	0,562439	2,663269
0,191000	0,559692	3,344879
0,192000	0,560608	4,741058
0,193000	0,558319	4,999847
0,194000	0,559845	4,999847
0,195000	0,558014	4,999847
0,196000	0,559692	4,999847
0,197000	0,551147	4,999847
0,198000	0,541229	4,966125
0,199000	0,550079	3,798676
0,200000	0,554962	3,034210
0,201000	0,559235	3,678284
0,202000	0,561676	4,978180
0,203000	0,562592	4,999847
0,204000	0,565033	4,999847
0,205000	0,566559	4,999847
0,206000	0,568542	4,999847
0,207000	0,570374	4,999847
0,208000	0,571442	4,417419
0,209000	0,572662	3,822784
0,210000	0,571747	3,819733
0,211000	0,566559	3,806915
0,212000	0,573425	4,999847
0,213000	0,574646	4,999847
0,214000	0,579529	4,999847
0,215000	0,551300	4,999847
0,216000	0,556030	4,999847
0,217000	0,561676	4,999847
0,218000	0,571442	4,999847
0,219000	0,581055	4,652557
0,220000	0,573883	2,333984
0,221000	0,577850	4,861450
0,222000	0,579224	4,510498
0,223000	0,584869	4,999847
0,224000	0,580139	4,999847
0,225000	0,586395	4,999847
0,226000	0,583038	4,999847
0,227000	0,589752	4,999847
0,228000	0,585937	4,999847
0,229000	0,592804	4,289703
0,230000	0,592194	3,531342
0,231000	0,593567	3,768463
0,232000	0,595856	4,999847
0,233000	0,589905	4,999847
0,234000	0,591278	4,999847
0,235000	0,587616	4,999847
0,236000	0,594788	4,999847
0,237000	0,580292	4,999847
0,238000	0,593872	4,999847
0,239000	0,588989	4,261627
0,240000	0,602875	3,314972
0,241000	0,594330	4,702148
0,242000	0,606232	3,884125
0,243000	0,601501	4,999847
0,244000	0,606842	4,999847
0,245000	0,603943	4,999847
0,246000	0,607147	4,999847
0,247000	0,608978	4,999847
0,248000	0,605927	4,902496
0,249000	0,611725	3,841248
0,250000	0,603027	4,804382
0,251000	0,613708	3,540497
0,252000	0,605927	4,999847
0,253000	0,619812	4,999847
0,254000	0,604248	4,999847
0,255000	0,621185	4,999847
0,256000	0,607300	4,999847
0,257000	0,619049	4,999847
0,258000	0,613098	4,967346
0,259000	0,619507	4,719391
0,260000	0,619354	4,291992
0,261000	0,622711	3,116913
0,262000	0,627899	3,802185
0,263000	0,624390	4,999847
0,264000	0,631866	4,999847
0,265000	0,619965	4,999847
0,266000	0,632782	4,999847
0,267000	0,619812	4,999847
0,268000	0,637665	4,442444
0,269000	0,619507	4,592133
0,270000	0,639343	3,314056
0,271000	0,623322	3,610687
0,272000	0,634766	4,999847
0,273000	0,623322	4,999847
0,274000	0,631256	4,999847
0,275000	0,621796	4,999847
0,276000	0,624237	4,999847
0,277000	0,631561	4,999847
0,278000	0,622711	4,999847
0,279000	0,638885	3,534393
0,280000	0,625458	3,642731
0,281000	0,646057	4,131012
0,282000	0,623169	3,980103
0,283000	0,650635	4,999847
0,284000	0,621796	4,999847
0,285000	0,646820	4,999847
0,286000	0,624084	4,999847
0,287000	0,640106	4,999847
0,288000	0,630035	4,999847
0,289000	0,634003	3,903351
0,290000	0,637207	3,956146
0,291000	0,630035	3,786163
0,292000	0,643158	4,999847
0,293000	0,625153	4,999847
0,294000	0,648956	4,999847
0,295000	0,619965	4,999847
0,296000	0,653381	4,999847
0,297000	0,614471	4,999847
0,298000	0,657806	4,999847
0,299000	0,622864	3,815613
0,300000	0,653381	3,476257
0,301000	0,631256	3,821564
0,302000	0,647888	3,450012
0,303000	0,642548	4,999847
0,304000	0,643463	4,999847
0,305000	0,651245	4,999847
0,306000	0,636749	4,999847
0,307000	0,656433	4,999847
0,308000	0,629425	4,833527
0,309000	0,662994	2,988129
0,310000	0,626068	2,709503
0,311000	0,670471	4,110718
0,312000	0,625916	4,999847
0,313000	0,673523	4,999847
0,314000	0,635071	4,999847
0,315000	0,666809	4,999847
0,316000	0,648041	4,999847
0,317000	0,643463	4,999847
0,318000	0,638428	4,999847
0,319000	0,645599	4,451752
0,320000	0,663147	2,521820
0,321000	0,647430	4,389801
0,322000	0,674133	4,435425
0,323000	0,643005	4,999847
0,324000	0,682526	4,999847
0,325000	0,639496	4,999847
0,326000	0,690002	4,999847
0,327000	0,637207	4,999847
0,328000	0,684509	4,999847
0,329000	0,646667	3,600922
0,330000	0,673828	4,424133
0,331000	0,658417	4,483185
0,332000	0,665741	4,999847
0,333000	0,667114	4,999847
0,334000	0,652618	4,999847
0,335000	0,673676	4,999847
0,336000	0,651398	4,999847
0,337000	0,687408	4,999847
0,338000	0,635071	4,999847
0,339000	0,688934	4,510651
0,340000	0,634155	3,262329
0,341000	0,700073	4,207001
0,342000	0,641174	2,732391
0,343000	0,691223	4,999847
0,344000	0,654449	4,999847
0,345000	0,678406	4,999847
0,346000	0,665741	4,999847
0,347000	0,671234	4,999847
0,348000	0,681000	4,999847
0,349000	0,665894	3,860779
0,350000	0,691376	4,258423
0,351000	0,657043	4,140167
0,352000	0,702362	4,142609
0,353000	0,649719	4,999847
0,354000	0,710907	4,999847
0,355000	0,648499	4,999847
0,356000	0,717621	4,999847
0,357000	0,662231	4,999847
0,358000	0,704346	4,999847
0,359000	0,635681	4,451141
0,360000	0,606842	3,537750
0,361000	0,596466	3,321228
0,362000	0,592499	3,528290
0,363000	0,643005	4,999847
0,364000	0,662537	4,999847
0,365000	0,687714	4,999847
0,366000	0,671234	4,999847
0,367000	0,707550	4,999847
0,368000	0,668182	4,999847
0,369000	0,718689	2,913208
0,370000	0,664215	3,573151
0,371000	0,729828	4,340057
0,372000	0,659027	4,618225
0,373000	0,728149	4,999847
0,374000	0,674438	4,999847
0,375000	0,716705	4,999847
0,376000	0,689087	4,999847
0,377000	0,705566	4,999847
0,378000	0,702362	4,999847
0,379000	0,691071	4,004364
0,380000	0,712128	2,287140
0,381000	0,683594	4,184265
0,382000	0,725555	3,025055
0,383000	0,669861	4,999847
0,384000	0,734100	4,999847
0,385000	0,664978	4,999847
0,386000	0,745850	4,999847
0,387000	0,677948	4,999847
0,388000	0,744324	4,999847
0,389000	0,695648	3,419342
0,390000	0,733948	4,999847
0,391000	0,712128	3,107910
0,392000	0,723419	4,999847
0,393000	0,726624	4,999847
0,394000	0,710144	4,999847
0,395000	0,736542	4,999847
0,396000	0,697632	4,999847
0,397000	0,746918	4,999847
0,398000	0,686188	4,681091
0,399000	0,757294	4,445190
0,400000	0,675964	4,235535
0,401000	0,766754	4,896545
0,402000	0,684662	3,904724
0,403000	0,746918	4,999847
0,404000	0,698700	4,999847
0,405000	0,732117	4,999847
0,406000	0,715637	4,999847
0,407000	0,718231	4,999847
0,408000	0,731354	4,633331
0,409000	0,709534	2,974396
0,410000	0,748444	3,719635
0,411000	0,705414	3,365173
0,412000	0,766144	4,463043
0,413000	0,690308	4,999847
0,414000	0,775604	4,999847
0,415000	0,689850	4,999847
0,416000	0,784912	4,999847
0,417000	0,704193	4,999847
0,418000	0,768738	4,999847
0,419000	0,727081	4,845734
0,420000	0,728302	3,844452
0,421000	0,717468	4,466095
0,422000	0,725708	2,980652
0,423000	0,750732	4,999847
0,424000	0,721893	4,999847
0,425000	0,770264	4,999847
0,426000	0,712433	4,999847
0,427000	0,784302	4,999847
0,428000	0,697937	4,999847
0,429000	0,794983	2,967377
0,430000	0,708313	3,822937
0,431000	0,803070	3,821716
0,432000	0,727386	4,999847
0,433000	0,786591	4,999847
0,434000	0,744629	4,999847
0,435000	0,763702	4,999847
0,436000	0,759125	4,999847
0,437000	0,747833	4,999847
0,438000	0,775146	4,633789
0,439000	0,722198	4,544525
0,440000	0,783386	4,123077
0,441000	0,702057	4,484863
0,442000	0,793457	3,068085
0,443000	0,685883	4,734955
0,444000	0,805969	4,999847
0,445000	0,709076	4,999847
0,446000	0,802307	4,999847
0,447000	0,734406	4,999847
0,448000	0,784760	4,997864
0,449000	0,755463	3,307495
0,450000	0,768127	3,052216
0,451000	0,774994	4,238281
0,452000	0,750427	4,250641
0,453000	0,790558	4,999847
0,454000	0,734863	4,999847
0,455000	0,805817	4,999847
0,456000	0,719604	4,999847
0,457000	0,819244	4,999847
0,458000	0,719910	4,999847
0,459000	0,839539	4,403229
0,460000	0,747986	2,990875
0,461000	0,835114	4,261322
0,462000	0,770416	3,164825
0,463000	0,820770	4,868317
0,464000	0,792389	4,999847
0,465000	0,807037	4,999847
0,466000	0,811768	4,999847
0,467000	0,789185	4,999847
0,468000	0,828094	4,524841
0,469000	0,772858	3,920746
0,470000	0,843048	2,949066
0,471000	0,755157	3,713226
0,472000	0,856018	4,999847
0,473000	0,753784	4,999847
0,474000	0,865021	4,999847
0,475000	0,772400	4,999847
0,476000	0,845947	4,999847
0,477000	0,792084	4,999847
0,478000	0,828552	4,999847
0,479000	0,811768	3,975983
0,480000	0,809326	3,903961
0,481000	0,829315	3,160400
0,482000	0,795288	4,222565
0,483000	0,848236	4,999847
0,484000	0,776367	4,999847
0,485000	0,861969	4,999847
0,486000	0,761261	4,999847
0,487000	0,875549	4,999847
0,488000	0,771027	4,130096
0,489000	0,867310	4,107056
0,490000	0,790100	4,313812
0,491000	0,851898	3,692474
0,492000	0,813599	4,623871
0,493000	0,832825	4,999847
0,494000	0,832214	4,999847
0,495000	0,816345	4,999847
0,496000	0,851288	4,999847
0,497000	0,793152	4,999847
0,498000	0,864105	4,999847
0,499000	0,779419	4,592896
0,500000	0,879517	2,916107
0,501000	0,771179	4,458923
0,502000	0,890656	3,488617
0,503000	0,796814	4,999847
0,504000	0,887909	4,999847
0,505000	0,819244	4,999847
0,506000	0,867004	4,999847
0,507000	0,840302	4,999847
0,508000	0,846558	4,999847
0,509000	0,858154	4,211884
0,510000	0,821838	2,659454
0,511000	0,871124	4,260406
0,512000	0,807800	4,999847
0,513000	0,885925	4,999847
0,514000	0,792236	4,999847
0,515000	0,894318	4,999847
0,516000	0,792389	4,999847
0,517000	0,897522	4,999847
0,518000	0,816956	4,999847
0,519000	0,885010	4,652405
0,520000	0,835876	3,174286
0,521000	0,864410	3,641510
0,522000	0,835876	3,697662
0,523000	0,839386	4,999847
0,524000	0,870667	4,999847
0,525000	0,835571	4,999847
0,526000	0,890656	4,999847
0,527000	0,819550	4,999847
0,528000	0,897369	4,234314
0,529000	0,804596	3,720703
0,530000	0,720520	4,080963
0,531000	0,682526	2,916718
0,532000	0,664825	4,676208
0,533000	0,656586	4,830780
0,534000	0,652924	4,999847
0,535000	0,651398	4,999847
0,536000	0,650940	4,999847
0,537000	0,650330	4,999847
0,538000	0,650177	4,973755
0,539000	0,649719	4,909821
0,540000	0,649719	3,670959
0,541000	0,649567	4,999847
0,542000	0,649261	4,408569
0,543000	0,649414	4,999847
0,544000	0,649261	4,999847
0,545000	0,649567	4,999847
0,546000	0,649261	4,999847
0,547000	0,649414	4,999847
0,548000	0,648956	4,999847
0,549000	0,648956	4,337158
0,550000	0,631409	2,566376
0,551000	0,594025	2,720032
0,552000	0,575562	4,999847
0,553000	0,568390	4,999847
0,554000	0,568695	4,999847
0,555000	0,568542	4,999847
0,556000	0,569153	4,999847
0,557000	0,570068	4,999847
0,558000	0,571747	4,419250
0,559000	0,574036	4,796600
0,560000	0,572968	2,875061
0,561000	0,572815	4,999847
0,562000	0,573730	3,445587
0,563000	0,574799	4,999847
0,564000	0,576324	4,999847
0,565000	0,573883	4,999847
0,566000	0,575104	4,999847
0,567000	0,578918	4,999847
0,568000	0,579376	4,999847
0,569000	0,579681	3,806152
0,570000	0,581055	2,325897
0,571000	0,580902	4,807739
0,572000	0,580750	4,999847
0,573000	0,578461	4,999847
0,574000	0,575867	4,999847
0,575000	0,575409	4,999847
0,576000	0,579681	4,999847
0,577000	0,579681	4,999847
0,578000	0,576782	4,999847
0,579000	0,578156	4,945068
0,580000	0,581360	2,849731
0,581000	0,584259	4,534149
0,582000	0,581512	3,299255
0,583000	0,579071	4,999847
0,584000	0,580444	4,999847
0,585000	0,581818	4,999847
0,586000	0,575714	4,999847
0,587000	0,574341	4,999847
0,588000	0,576935	4,715729
0,589000	0,580902	3,730164
0,590000	0,580292	3,394623
0,591000	0,579224	4,842987
0,592000	0,578156	4,999847
0,593000	0,579376	4,999847
0,594000	0,579529	4,999847
0,595000	0,577850	4,999847
0,596000	0,576172	4,999847
0,597000	0,575714	4,999847
0,598000	0,574646	4,999847
0,599000	0,573730	3,864136
0,600000	0,572968	2,230377
0,601000	0,568542	4,288177
0,602000	0,569305	3,789520
0,603000	0,568237	4,999847
0,604000	0,566406	4,999847
0,605000	0,564880	4,999847
0,606000	0,569763	4,999847
0,607000	0,570374	4,999847
0,608000	0,572662	4,553528
0,609000	0,571747	4,288788
0,610000	0,569611	3,321991
0,611000	0,558014	4,868164
0,612000	0,559540	4,958038
0,613000	0,566559	4,999847
0,614000	0,571136	4,999847
0,615000	0,573120	4,999847
0,616000	0,571289	4,999847
0,617000	0,574646	4,999847
0,618000	0,572205	4,999847
0,619000	0,571289	4,523010
0,620000	0,565186	2,931519
0,621000	0,565948	4,140015
0,622000	0,567932	3,300323
0,623000	0,572510	4,636993
0,624000	0,568390	4,999847
0,625000	0,561066	4,999847
0,626000	0,556030	4,999847
0,627000	0,561981	4,999847
0,628000	0,571136	4,999847
0,629000	0,571747	3,745728
0,630000	0,572052	3,215332
0,631000	0,573883	4,382629
0,632000	0,573578	4,626770
0,633000	0,568085	4,999847
0,634000	0,569000	4,999847
0,635000	0,565186	4,999847
0,636000	0,566864	4,999847
0,637000	0,563507	4,999847
0,638000	0,563965	4,999847
0,639000	0,565491	3,707123
0,640000	0,566864	2,488708
0,641000	0,568542	4,120789
0,642000	0,569458	4,082336
0,643000	0,571289	4,999847
0,644000	0,573120	4,999847
0,645000	0,575409	4,999847
0,646000	0,577545	4,999847
0,647000	0,579681	4,999847
0,648000	0,580444	4,999847
0,649000	0,580750	3,677826
0,650000	0,580750	3,096161
0,651000	0,579376	3,925934
0,652000	0,582123	4,999847
0,653000	0,578918	4,999847
0,654000	0,572815	4,999847
0,655000	0,572510	4,999847
0,656000	0,567017	4,999847
0,657000	0,569305	4,999847
0,658000	0,569916	4,999847
0,659000	0,572968	4,170380
0,660000	0,569305	2,408752
0,661000	0,583191	3,500214
0,662000	0,583191	3,573608
0,663000	0,590515	4,999847
0,664000	0,587158	4,999847
0,665000	0,591583	4,999847
0,666000	0,588989	4,999847
0,667000	0,587311	4,999847
0,668000	0,577850	4,999847
0,669000	0,578308	3,651276
0,670000	0,583191	3,875122
0,671000	0,583038	4,072266
0,672000	0,588684	4,870148
0,673000	0,577850	4,999847
0,674000	0,587921	4,999847
0,675000	0,577393	4,999847
0,676000	0,592804	4,999847
0,677000	0,571289	4,999847
0,678000	0,591583	4,999847
0,679000	0,584106	3,881989
0,680000	0,595551	3,107758
0,681000	0,589905	4,999847
0,682000	0,593567	4,084930
0,683000	0,587921	4,609070
0,684000	0,577545	4,999847
0,685000	0,591278	4,999847
0,686000	0,587006	4,999847
0,687000	0,601349	4,999847
0,688000	0,584869	4,999847
0,689000	0,617065	3,037872
0,690000	0,595703	4,528046
0,691000	0,621643	3,379974
0,692000	0,584412	4,437103
0,693000	0,611877	4,999847
0,694000	0,584106	4,999847
0,695000	0,603943	4,999847
0,696000	0,594025	4,999847
0,697000	0,606995	4,999847
0,698000	0,613098	4,999847
0,699000	0,611420	4,204865
0,700000	0,615234	4,073792
0,701000	0,599060	4,944458
0,702000	0,623322	3,738861
0,703000	0,607910	4,999847
0,704000	0,635834	4,999847
0,705000	0,613098	4,999847
0,706000	0,642242	4,999847
0,707000	0,615234	4,999847
0,708000	0,637207	4,999847
0,709000	0,592804	3,356781
0,710000	0,606537	3,132629
0,711000	0,604706	4,238434
0,712000	0,602264	4,436798
0,713000	0,615387	4,999847
0,714000	0,610199	4,999847
0,715000	0,625610	4,999847
0,716000	0,606232	4,999847
0,717000	0,628510	4,999847
0,718000	0,600891	4,999847
0,719000	0,636749	4,962921
0,720000	0,595551	4,197083
0,721000	0,636139	4,436798
0,722000	0,600739	3,878937
0,723000	0,629120	4,999847
0,724000	0,622711	4,999847
0,725000	0,635986	4,999847
0,726000	0,631866	4,999847
0,727000	0,603790	4,999847
0,728000	0,623779	4,025269
0,729000	0,608826	2,932434
0,730000	0,640411	4,724884
0,731000	0,621796	2,956848
0,732000	0,659790	4,999847
0,733000	0,625458	4,999847
0,734000	0,669861	4,999847
0,735000	0,624084	4,999847
0,736000	0,666351	4,999847
0,737000	0,639496	4,999847
0,738000	0,662689	4,999847
0,739000	0,641327	4,511108
0,740000	0,648193	4,509583
0,741000	0,646667	4,037933
0,742000	0,595551	4,407043
0,743000	0,617828	4,999847
0,744000	0,583954	4,999847
0,745000	0,625000	4,999847
0,746000	0,588074	4,999847
0,747000	0,645447	4,999847
0,748000	0,599060	4,356079
0,749000	0,658417	3,951569
0,750000	0,603027	4,534607
0,751000	0,650330	3,331451
0,752000	0,620728	4,999847
0,753000	0,644226	4,999847
0,754000	0,633240	4,999847
0,755000	0,634003	4,999847
0,756000	0,634766	4,999847
0,757000	0,625458	4,999847
0,758000	0,653534	4,505615
0,759000	0,621643	4,157867
0,760000	0,661316	3,271637
0,761000	0,611725	4,259033
0,762000	0,669098	4,010925
0,763000	0,590515	4,999847
0,764000	0,666351	4,999847
0,765000	0,613708	4,999847
0,766000	0,659637	4,999847
0,767000	0,630646	4,999847
0,768000	0,652618	4,572449
0,769000	0,646820	4,338226
0,770000	0,641632	4,172516
0,771000	0,657196	3,439941
0,772000	0,635986	4,999847
0,773000	0,669861	4,999847
0,774000	0,634003	4,999847
0,775000	0,684967	4,999847
0,776000	0,625458	4,999847
0,777000	0,691528	4,999847
0,778000	0,614319	4,275055
0,779000	0,683594	4,376678
0,780000	0,630035	3,870239
0,781000	0,669098	4,537811
0,782000	0,647278	4,247894
0,783000	0,664062	4,990845
0,784000	0,665588	4,999847
0,785000	0,656433	4,999847
0,786000	0,678253	4,999847
0,787000	0,647430	4,999847
0,788000	0,688171	4,999847
0,789000	0,635529	4,169312
0,790000	0,696259	2,602386
0,791000	0,623169	4,777679
0,792000	0,704346	4,999847
0,793000	0,630341	4,999847
0,794000	0,694885	4,999847
0,795000	0,651245	4,999847
0,796000	0,683289	4,999847
0,797000	0,612183	4,999847
0,798000	0,579987	4,999847
0,799000	0,547943	4,839020
0,800000	0,639496	2,735443
0,801000	0,628204	4,787598
0,802000	0,690765	3,755951
0,803000	0,636749	4,999847
0,804000	0,708466	4,999847
0,805000	0,631561	4,999847
0,806000	0,716553	4,999847
0,807000	0,642395	4,999847
0,808000	0,700531	4,999847
0,809000	0,661774	4,447632
0,810000	0,688477	2,929687
0,811000	0,676422	4,363098
0,812000	0,677338	4,674683
0,813000	0,692444	4,999847
0,814000	0,667877	4,999847
0,815000	0,704498	4,999847
0,816000	0,650482	4,999847
0,817000	0,713959	4,999847
0,818000	0,636902	4,999847
0,819000	0,724335	4,441223
0,820000	0,637054	2,956848
0,821000	0,727386	4,391937
0,822000	0,662537	3,634796
0,823000	0,714722	4,999847
0,824000	0,678864	4,999847
0,825000	0,699463	4,999847
0,826000	0,694427	4,999847
0,827000	0,687256	4,999847
0,828000	0,710144	4,999847
0,829000	0,657196	3,912354
0,830000	0,695038	3,861694
0,831000	0,634613	4,804535
0,832000	0,722961	4,999847
0,833000	0,635529	4,999847
0,834000	0,739136	4,999847
0,835000	0,642395	4,999847
0,836000	0,729218	4,999847
0,837000	0,662384	4,999847
0,838000	0,709381	4,999847
0,839000	0,678711	4,351349
0,840000	0,692596	2,857056
0,841000	0,699005	4,264069
0,842000	0,675507	4,259491
0,843000	0,713501	4,999847
0,844000	0,659027	4,999847
0,845000	0,727844	4,999847
0,846000	0,647430	4,999847
0,847000	0,742645	4,999847
0,848000	0,636902	4,999847
0,849000	0,750580	4,401093
0,850000	0,652008	4,254456
0,851000	0,731201	3,340912
0,852000	0,676880	4,999847
0,853000	0,719604	4,999847
0,854000	0,702362	4,999847
0,855000	0,707397	4,999847
0,856000	0,724030	4,999847
0,857000	0,694427	4,999847
0,858000	0,740814	4,999847
0,859000	0,677643	4,717102
0,860000	0,754395	3,906860
0,861000	0,665131	4,999847
0,862000	0,768280	3,032379
0,863000	0,657043	4,532928
0,864000	0,773468	4,999847
0,865000	0,684662	4,999847
0,866000	0,755310	4,999847
0,867000	0,707703	4,999847
0,868000	0,738373	4,999847
0,869000	0,729065	3,811493
0,870000	0,724030	4,416199
0,871000	0,747986	3,699341
0,872000	0,710297	4,857788
0,873000	0,765076	4,999847
0,874000	0,697479	4,999847
0,875000	0,780640	4,999847
0,876000	0,684509	4,999847
0,877000	0,794220	4,999847
0,878000	0,688629	4,999847
0,879000	0,794830	3,899078
0,880000	0,713806	4,343109
0,881000	0,777130	4,163818
0,882000	0,735779	4,000244
0,883000	0,756989	4,999847
0,884000	0,754852	4,999847
0,885000	0,741577	4,999847
0,886000	0,773315	4,999847
0,887000	0,728302	4,999847
0,888000	0,790710	4,999847
0,889000	0,716248	4,179077
0,890000	0,806122	4,093475
0,891000	0,705872	3,226166
0,892000	0,820770	4,999847
0,893000	0,716705	4,999847
0,894000	0,811157	4,999847
0,895000	0,739746	4,999847
0,896000	0,792389	4,999847
0,897000	0,761719	4,999847
0,898000	0,773163	4,999847
0,899000	0,780334	4,800110
0,900000	0,760803	2,984009
0,901000	0,799561	4,674377
0,902000	0,745392	4,211578
0,903000	0,815277	4,999847
0,904000	0,734100	4,999847
0,905000	0,832367	4,999847
0,906000	0,722656	4,999847
0,907000	0,844727	4,999847
0,908000	0,745239	4,753265
0,909000	0,833588	3,900757
0,910000	0,770416	2,648315
0,911000	0,814514	4,194489
0,912000	0,790253	4,288177
0,913000	0,801697	4,999847
0,914000	0,811310	4,999847
0,915000	0,785675	4,999847
0,916000	0,829468	4,999847
0,917000	0,772858	4,999847
0,918000	0,847626	4,999847
0,919000	0,760345	3,976440
0,920000	0,863800	3,171234
0,921000	0,756989	4,940491
0,922000	0,873566	3,467712
0,923000	0,780182	4,999847
0,924000	0,858459	4,999847
0,925000	0,801697	4,999847
0,926000	0,839386	4,999847
0,927000	0,821381	4,999847
0,928000	0,822906	4,545898
0,929000	0,840912	3,765411
0,930000	0,805969	4,639282
0,931000	0,857849	4,999847
0,932000	0,771179	4,999847
0,933000	0,860291	4,999847
0,934000	0,771332	4,999847
0,935000	0,884247	4,999847
0,936000	0,782776	4,999847
0,937000	0,886841	4,999847
0,938000	0,803223	4,999847
0,939000	0,865479	4,525757
0,940000	0,824127	3,838654
0,941000	0,845490	4,520264
0,942000	0,843201	4,423370
0,943000	0,828094	4,999847
0,944000	0,861359	4,999847
0,945000	0,811768	4,999847
0,946000	0,876923	4,999847
0,947000	0,794067	4,999847
0,948000	0,888062	4,825592
0,949000	0,782166	3,666534
0,950000	0,894623	3,455963
0,951000	0,801697	3,667297
0,952000	0,887604	4,999847
0,953000	0,820923	4,999847
0,954000	0,869446	4,999847
0,955000	0,844269	4,999847
0,956000	0,852051	4,999847
0,957000	0,863953	4,999847
0,958000	0,832672	4,901581
0,959000	0,878906	4,204254
0,960000	0,817261	3,124237
0,961000	0,890656	4,999847
0,962000	0,800629	3,678589
0,963000	0,896606	4,999847
0,964000	0,793457	4,999847
0,965000	0,897369	4,999847
0,966000	0,773163	4,999847
0,967000	0,706177	4,999847
0,968000	0,676117	4,832611
0,969000	0,662537	3,677673
0,970000	0,656738	4,848175
0,971000	0,653992	4,860077
0,972000	0,652466	4,944000
0,973000	0,651550	4,999847
0,974000	0,651550	4,999847
0,975000	0,650635	4,999847
0,976000	0,650482	4,999847
0,977000	0,650482	4,999847
0,978000	0,650635	4,999847
0,979000	0,650177	4,599609
0,980000	0,650177	3,655853
0,981000	0,650177	4,263916
0,982000	0,650024	3,598328
0,983000	0,650330	4,999847
0,984000	0,650024	4,999847
0,985000	0,650024	4,999847
0,986000	0,649719	4,999847
0,987000	0,636902	4,999847
0,988000	0,556488	4,999847
0,989000	0,518646	4,455109
0,990000	0,504303	3,901978
0,991000	0,504608	3,135376
0,992000	0,506134	4,999847
0,993000	0,506439	4,999847
0,994000	0,514069	4,999847
0,995000	0,519104	4,999847
0,996000	0,513916	4,999847
0,997000	0,508728	4,999847
0,998000	0,508575	4,681396
0,999000	0,510101	3,722382

