LabVIEW Measurement	
Writer_Version	2
Reader_Version	2
Separator	Tab
Decimal_Separator	,
Multi_Headings	Yes
X_Columns	One
Time_Pref	Absolute
Operator	d.nicolai
Date	2023/11/09
Time	16:04:05,6565121999996605588
***End_of_Header***	
	
Channels	2		
Samples	1000	1000	
Date	2023/11/09	2023/11/09	
Time	16:04:37,5945126999996926618	16:04:37,5945126999996926618	
Y_Unit_Label	Volts	Volts	
X_Dimension	Time	Time	
X0	0,0000000000000000E+0	0,0000000000000000E+0	
Delta_X	0,001000	0,001000	
***End_of_Header***			
X_Value	powebox	triggerbox	Comment
0,000000	0,563812	1,098022
0,001000	0,567169	4,402466
0,002000	0,562286	4,999847
0,003000	0,564575	4,999847
0,004000	0,562439	4,999847
0,005000	0,558777	4,999847
0,006000	0,559845	4,999847
0,007000	0,559387	4,999847
0,008000	0,561218	4,913177
0,009000	0,560455	3,911591
0,010000	0,560608	2,054901
0,011000	0,561371	4,820251
0,012000	0,561523	3,705902
0,013000	0,562897	4,999847
0,014000	0,563507	4,999847
0,015000	0,566406	4,999847
0,016000	0,567017	4,999847
0,017000	0,565338	4,999847
0,018000	0,564880	4,999847
0,019000	0,559082	3,520813
0,020000	0,559692	0,849152
0,021000	0,561066	4,999847
0,022000	0,565491	4,960480
0,023000	0,570831	4,999847
0,024000	0,578156	4,999847
0,025000	0,570679	4,999847
0,026000	0,578918	4,999847
0,027000	0,577240	4,999847
0,028000	0,578766	4,939423
0,029000	0,578003	3,753357
0,030000	0,580750	4,246521
0,031000	0,578308	4,009247
0,032000	0,577087	4,091339
0,033000	0,582886	4,999847
0,034000	0,581360	4,999847
0,035000	0,584259	4,999847
0,036000	0,576477	4,999847
0,037000	0,591125	4,999847
0,038000	0,579987	4,754181
0,039000	0,589294	3,445282
0,040000	0,582581	3,801880
0,041000	0,593567	4,732513
0,042000	0,584106	4,999847
0,043000	0,592957	4,999847
0,044000	0,586548	4,999847
0,045000	0,594940	4,999847
0,046000	0,588074	4,999847
0,047000	0,594177	4,999847
0,048000	0,589142	4,999847
0,049000	0,587158	4,002991
0,050000	0,593567	3,371124
0,051000	0,605011	3,934174
0,052000	0,615845	4,957581
0,053000	0,603180	4,999847
0,054000	0,619202	4,999847
0,055000	0,602112	4,999847
0,056000	0,623322	4,999847
0,057000	0,608673	4,999847
0,058000	0,623779	4,468079
0,059000	0,616455	3,836517
0,060000	0,623932	3,962402
0,061000	0,622101	4,432831
0,062000	0,620880	4,999847
0,063000	0,621948	4,999847
0,064000	0,616913	4,999847
0,065000	0,627747	4,999847
0,066000	0,591431	4,999847
0,067000	0,614319	4,999847
0,068000	0,596161	4,999847
0,069000	0,628662	3,545685
0,070000	0,610809	4,010773
0,071000	0,638123	3,613281
0,072000	0,619202	4,493561
0,073000	0,633850	4,999847
0,074000	0,621185	4,999847
0,075000	0,629272	4,999847
0,076000	0,627899	4,999847
0,077000	0,627441	4,999847
0,078000	0,636749	4,299011
0,079000	0,625916	2,849731
0,080000	0,641937	4,343719
0,081000	0,620575	4,445190
0,082000	0,646973	4,753723
0,083000	0,618134	4,999847
0,084000	0,652618	4,999847
0,085000	0,620575	4,999847
0,086000	0,651398	4,999847
0,087000	0,630646	4,999847
0,088000	0,619507	4,999847
0,089000	0,610657	3,663635
0,090000	0,617218	3,567200
0,091000	0,624542	3,407135
0,092000	0,621490	3,973541
0,093000	0,636139	4,999847
0,094000	0,616913	4,999847
0,095000	0,641479	4,999847
0,096000	0,616760	4,999847
0,097000	0,648956	4,999847
0,098000	0,587616	4,308319
0,099000	0,639343	3,526154
0,100000	0,579376	3,188782
0,101000	0,639343	4,802399
0,102000	0,605164	4,999847
0,103000	0,638733	4,999847
0,104000	0,635834	4,999847
0,105000	0,641174	4,999847
0,106000	0,650482	4,999847
0,107000	0,636444	4,999847
0,108000	0,659485	4,836273
0,109000	0,628967	4,084930
0,110000	0,664673	3,387756
0,111000	0,626831	4,057007
0,112000	0,676117	4,287872
0,113000	0,620880	4,999847
0,114000	0,677643	4,999847
0,115000	0,631561	4,999847
0,116000	0,663300	4,999847
0,117000	0,633240	4,999847
0,118000	0,653839	4,768982
0,119000	0,649872	3,248749
0,120000	0,645142	3,032074
0,121000	0,644989	4,495239
0,122000	0,631561	4,979095
0,123000	0,668793	4,999847
0,124000	0,635681	4,999847
0,125000	0,683136	4,999847
0,126000	0,606079	4,999847
0,127000	0,663910	4,999847
0,128000	0,608368	4,999847
0,129000	0,669098	4,390106
0,130000	0,630341	4,362488
0,131000	0,660095	3,252411
0,132000	0,641479	4,926910
0,133000	0,643311	4,999847
0,134000	0,649719	4,999847
0,135000	0,638885	4,999847
0,136000	0,662079	4,999847
0,137000	0,634613	4,999847
0,138000	0,673370	4,389801
0,139000	0,628967	3,350220
0,140000	0,682678	4,411926
0,141000	0,620117	3,785553
0,142000	0,690460	4,999847
0,143000	0,624847	4,999847
0,144000	0,677795	4,999847
0,145000	0,633392	4,999847
0,146000	0,659790	4,999847
0,147000	0,638733	4,999847
0,148000	0,633698	4,901276
0,149000	0,630341	3,921051
0,150000	0,620270	4,361115
0,151000	0,661163	3,264771
0,152000	0,633392	4,448395
0,153000	0,684204	4,999847
0,154000	0,632782	4,999847
0,155000	0,699921	4,999847
0,156000	0,627441	4,999847
0,157000	0,704041	4,999847
0,158000	0,637360	4,810638
0,159000	0,687714	3,085327
0,160000	0,652466	3,809357
0,161000	0,676270	2,802429
0,162000	0,668488	4,730072
0,163000	0,671082	4,999847
0,164000	0,603943	4,999847
0,165000	0,573120	4,999847
0,166000	0,555573	4,999847
0,167000	0,669250	4,999847
0,168000	0,601044	4,365692
0,169000	0,676727	3,993378
0,170000	0,608673	3,010712
0,171000	0,684357	3,686218
0,172000	0,642548	4,415894
0,173000	0,677948	4,999847
0,174000	0,662384	4,999847
0,175000	0,684662	4,999847
0,176000	0,695953	4,999847
0,177000	0,666656	4,999847
0,178000	0,708160	3,622894
0,179000	0,649109	3,200226
0,180000	0,710754	3,311615
0,181000	0,645447	4,901428
0,182000	0,737915	4,999847
0,183000	0,644989	4,999847
0,184000	0,745087	4,999847
0,185000	0,662384	4,999847
0,186000	0,695648	4,999847
0,187000	0,657959	4,999847
0,188000	0,686798	4,999847
0,189000	0,682983	4,274597
0,190000	0,678101	3,867798
0,191000	0,700684	3,096008
0,192000	0,665131	4,953766
0,193000	0,713806	4,999847
0,194000	0,659637	4,999847
0,195000	0,728149	4,999847
0,196000	0,649719	4,999847
0,197000	0,739899	4,999847
0,198000	0,642548	4,393463
0,199000	0,717926	3,662109
0,200000	0,660248	3,809509
0,201000	0,711212	3,701630
0,202000	0,679016	4,999847
0,203000	0,692444	4,999847
0,204000	0,693970	4,999847
0,205000	0,681915	4,999847
0,206000	0,715179	4,999847
0,207000	0,670013	4,999847
0,208000	0,729828	4,915161
0,209000	0,659332	4,424896
0,210000	0,743561	4,175415
0,211000	0,648346	3,552551
0,212000	0,756226	3,822937
0,213000	0,660858	4,999847
0,214000	0,743561	4,999847
0,215000	0,681000	4,999847
0,216000	0,727386	4,999847
0,217000	0,704803	4,999847
0,218000	0,704956	4,264069
0,219000	0,715179	3,644104
0,220000	0,684509	3,078308
0,221000	0,728607	4,752502
0,222000	0,667572	4,938965
0,223000	0,743103	4,999847
0,224000	0,658112	4,999847
0,225000	0,758820	4,999847
0,226000	0,649261	4,999847
0,227000	0,766449	4,999847
0,228000	0,673218	4,999847
0,229000	0,748444	4,537659
0,230000	0,698090	3,044281
0,231000	0,734711	3,495331
0,232000	0,720978	3,791656
0,233000	0,722046	4,682159
0,234000	0,742035	4,999847
0,235000	0,709839	4,999847
0,236000	0,761261	4,999847
0,237000	0,701599	4,999847
0,238000	0,777588	4,140320
0,239000	0,692902	3,491821
0,240000	0,793152	3,570709
0,241000	0,688171	4,167023
0,242000	0,801697	4,999847
0,243000	0,715027	4,999847
0,244000	0,782776	4,999847
0,245000	0,735779	4,999847
0,246000	0,763855	4,999847
0,247000	0,754547	4,999847
0,248000	0,747223	4,795227
0,249000	0,771484	4,770966
0,250000	0,733795	4,519501
0,251000	0,788879	3,696747
0,252000	0,719299	3,997040
0,253000	0,802460	4,999847
0,254000	0,702667	4,999847
0,255000	0,814362	4,999847
0,256000	0,708618	4,999847
0,257000	0,811005	4,999847
0,258000	0,733948	4,007874
0,259000	0,794220	3,858337
0,260000	0,756989	3,016663
0,261000	0,778656	4,671021
0,262000	0,777588	4,999847
0,263000	0,764008	4,999847
0,264000	0,795441	4,999847
0,265000	0,749817	4,999847
0,266000	0,811920	4,999847
0,267000	0,734406	4,999847
0,268000	0,827179	4,999847
0,269000	0,725555	3,403320
0,270000	0,843658	2,522736
0,271000	0,721283	4,999847
0,272000	0,817566	3,407898
0,273000	0,756531	4,999847
0,274000	0,809326	4,999847
0,275000	0,781860	4,999847
0,276000	0,800171	4,999847
0,277000	0,805054	4,999847
0,278000	0,790710	4,999847
0,279000	0,826569	3,049927
0,280000	0,774384	1,873322
0,281000	0,843201	4,614258
0,282000	0,763397	4,828339
0,283000	0,859680	4,999847
0,284000	0,756683	4,999847
0,285000	0,873108	4,999847
0,286000	0,778198	4,999847
0,287000	0,859680	4,999847
0,288000	0,795746	4,999847
0,289000	0,842438	3,652802
0,290000	0,817108	3,778229
0,291000	0,823975	4,476166
0,292000	0,834351	4,810944
0,293000	0,804749	4,999847
0,294000	0,851440	4,999847
0,295000	0,787811	4,999847
0,296000	0,866852	4,999847
0,297000	0,772705	4,999847
0,298000	0,879517	4,137878
0,299000	0,777893	3,092804
0,300000	0,886841	2,892303
0,301000	0,800323	4,237213
0,302000	0,867462	4,999847
0,303000	0,818176	4,999847
0,304000	0,844269	4,999847
0,305000	0,835876	4,999847
0,306000	0,829468	4,999847
0,307000	0,856476	4,999847
0,308000	0,815887	4,999847
0,309000	0,873566	4,127350
0,310000	0,798035	3,169403
0,311000	0,885010	4,224091
0,312000	0,783234	3,626556
0,313000	0,892334	4,999847
0,314000	0,795288	4,999847
0,315000	0,889587	4,999847
0,316000	0,816650	4,999847
0,317000	0,866699	4,999847
0,318000	0,836029	4,312744
0,319000	0,849457	3,274994
0,320000	0,856934	3,224487
0,321000	0,828705	4,684753
0,322000	0,872040	4,999847
0,323000	0,813751	4,999847
0,324000	0,885620	4,999847
0,325000	0,796967	4,999847
0,326000	0,893097	4,999847
0,327000	0,787659	4,999847
0,328000	0,895844	4,999847
0,329000	0,812378	3,569183
0,330000	0,891418	1,916351
0,331000	0,835571	3,873138
0,332000	0,869598	4,612427
0,333000	0,752563	4,999847
0,334000	0,695953	4,999847
0,335000	0,670319	4,999847
0,336000	0,658417	4,999847
0,337000	0,653076	4,999847
0,338000	0,650482	4,999847
0,339000	0,648651	2,721558
0,340000	0,648346	0,819397
0,341000	0,648193	4,999847
0,342000	0,648193	4,999847
0,343000	0,647736	4,999847
0,344000	0,647736	4,999847
0,345000	0,647888	4,999847
0,346000	0,647888	4,999847
0,347000	0,648193	4,999847
0,348000	0,648193	4,999847
0,349000	0,647888	3,821259
0,350000	0,647888	2,573395
0,351000	0,647736	4,471588
0,352000	0,647583	4,514160
0,353000	0,647430	4,999847
0,354000	0,647583	4,999847
0,355000	0,601044	4,999847
0,356000	0,572357	4,999847
0,357000	0,564423	4,999847
0,358000	0,562897	4,309998
0,359000	0,569611	3,449402
0,360000	0,572510	1,737061
0,361000	0,572815	4,545288
0,362000	0,575562	4,999847
0,363000	0,575714	4,999847
0,364000	0,575562	4,999847
0,365000	0,575104	4,999847
0,366000	0,574951	4,999847
0,367000	0,573730	4,999847
0,368000	0,576172	4,644012
0,369000	0,574646	3,757477
0,370000	0,570679	4,828644
0,371000	0,571747	3,922119
0,372000	0,569458	4,045410
0,373000	0,556030	4,999847
0,374000	0,551300	4,999847
0,375000	0,557098	4,999847
0,376000	0,556335	4,999847
0,377000	0,554352	4,999847
0,378000	0,557098	4,675140
0,379000	0,559235	3,355103
0,380000	0,555420	4,629211
0,381000	0,555573	3,739319
0,382000	0,556488	4,999847
0,383000	0,559998	4,999847
0,384000	0,560608	4,999847
0,385000	0,560913	4,999847
0,386000	0,565796	4,999847
0,387000	0,565948	4,999847
0,388000	0,568237	4,923401
0,389000	0,562286	4,118805
0,390000	0,563354	3,911743
0,391000	0,565338	3,737793
0,392000	0,563202	4,204102
0,393000	0,559235	4,999847
0,394000	0,558929	4,999847
0,395000	0,561676	4,999847
0,396000	0,563812	4,999847
0,397000	0,564880	4,999847
0,398000	0,563660	4,999847
0,399000	0,568390	3,038483
0,400000	0,566254	2,893372
0,401000	0,568237	4,501801
0,402000	0,563660	4,624329
0,403000	0,564575	4,999847
0,404000	0,560455	4,999847
0,405000	0,564270	4,999847
0,406000	0,563965	4,999847
0,407000	0,565796	4,999847
0,408000	0,565643	4,999847
0,409000	0,561981	3,849945
0,410000	0,552521	3,468323
0,411000	0,551453	3,716125
0,412000	0,546875	3,431854
0,413000	0,539551	4,999847
0,414000	0,539246	4,999847
0,415000	0,529633	4,999847
0,416000	0,540619	4,999847
0,417000	0,541534	4,999847
0,418000	0,548248	4,999847
0,419000	0,546570	2,312164
0,420000	0,548706	2,377014
0,421000	0,552063	4,766846
0,422000	0,554810	4,893341
0,423000	0,561676	4,999847
0,424000	0,562286	4,999847
0,425000	0,560760	4,999847
0,426000	0,561829	4,999847
0,427000	0,561371	4,999847
0,428000	0,562897	4,999847
0,429000	0,564423	4,527740
0,430000	0,561981	2,776184
0,431000	0,566559	2,578735
0,432000	0,567169	4,341125
0,433000	0,571289	4,999847
0,434000	0,569458	4,999847
0,435000	0,567627	4,999847
0,436000	0,569458	4,999847
0,437000	0,571594	4,999847
0,438000	0,571136	4,999847
0,439000	0,574493	3,921967
0,440000	0,576019	2,599792
0,441000	0,576935	4,684753
0,442000	0,576782	4,724121
0,443000	0,575409	4,999847
0,444000	0,574188	4,999847
0,445000	0,574341	4,999847
0,446000	0,565948	4,999847
0,447000	0,568848	4,999847
0,448000	0,570068	4,409637
0,449000	0,571594	3,952942
0,450000	0,571747	3,622589
0,451000	0,568695	4,999847
0,452000	0,568085	4,999847
0,453000	0,576019	4,999847
0,454000	0,580292	4,999847
0,455000	0,577240	4,999847
0,456000	0,582581	4,999847
0,457000	0,578766	4,999847
0,458000	0,573425	3,985748
0,459000	0,568542	3,333435
0,460000	0,571289	3,652191
0,461000	0,567474	3,472443
0,462000	0,573578	4,999847
0,463000	0,575562	4,999847
0,464000	0,579681	4,999847
0,465000	0,579376	4,999847
0,466000	0,579529	4,999847
0,467000	0,585785	4,999847
0,468000	0,587921	4,999847
0,469000	0,598755	4,748688
0,470000	0,595398	4,042206
0,471000	0,595703	3,660278
0,472000	0,589905	3,892059
0,473000	0,597992	4,725494
0,474000	0,591278	4,999847
0,475000	0,597687	4,999847
0,476000	0,564117	4,999847
0,477000	0,581207	4,992676
0,478000	0,586700	4,999847
0,479000	0,590820	3,724365
0,480000	0,594025	2,572784
0,481000	0,597076	4,331360
0,482000	0,602875	4,999847
0,483000	0,596008	4,999847
0,484000	0,603790	4,999847
0,485000	0,603333	4,999847
0,486000	0,610504	4,999847
0,487000	0,601959	4,999847
0,488000	0,611420	4,824677
0,489000	0,601654	4,832764
0,490000	0,609436	2,570038
0,491000	0,600586	4,999847
0,492000	0,608826	4,095306
0,493000	0,609589	4,999847
0,494000	0,609894	4,999847
0,495000	0,611877	4,999847
0,496000	0,611267	4,999847
0,497000	0,617676	4,999847
0,498000	0,610352	4,241486
0,499000	0,619659	3,265991
0,500000	0,608215	3,308716
0,501000	0,623932	4,176331
0,502000	0,608521	4,999847
0,503000	0,624390	4,999847
0,504000	0,603790	4,999847
0,505000	0,618896	4,999847
0,506000	0,605621	4,999847
0,507000	0,611725	4,999847
0,508000	0,609894	4,999847
0,509000	0,613098	4,916229
0,510000	0,618591	3,692017
0,511000	0,610046	3,377991
0,512000	0,622864	4,302979
0,513000	0,610504	4,999847
0,514000	0,628662	4,999847
0,515000	0,609894	4,999847
0,516000	0,634308	4,999847
0,517000	0,607147	4,999847
0,518000	0,632629	4,999847
0,519000	0,614471	3,426056
0,520000	0,630035	3,263397
0,521000	0,622253	4,999847
0,522000	0,624542	4,535065
0,523000	0,624237	4,999847
0,524000	0,620880	4,999847
0,525000	0,630646	4,999847
0,526000	0,618591	4,999847
0,527000	0,637817	4,999847
0,528000	0,617828	4,999847
0,529000	0,644684	4,199219
0,530000	0,603180	3,355713
0,531000	0,644226	4,258270
0,532000	0,596466	3,898010
0,533000	0,633545	4,999847
0,534000	0,605469	4,999847
0,535000	0,625153	4,999847
0,536000	0,612030	4,999847
0,537000	0,613251	4,999847
0,538000	0,613098	4,833679
0,539000	0,596161	3,479004
0,540000	0,622253	2,450562
0,541000	0,594635	4,317627
0,542000	0,630951	4,999847
0,543000	0,590973	4,999847
0,544000	0,643768	4,999847
0,545000	0,592499	4,999847
0,546000	0,651093	4,999847
0,547000	0,606384	4,999847
0,548000	0,644989	4,919434
0,549000	0,621643	4,387207
0,550000	0,636292	2,749786
0,551000	0,632935	4,999847
0,552000	0,630646	3,501892
0,553000	0,639038	4,999847
0,554000	0,615234	4,999847
0,555000	0,640106	4,999847
0,556000	0,608978	4,999847
0,557000	0,652771	4,999847
0,558000	0,602722	4,999847
0,559000	0,661774	3,870850
0,560000	0,599213	3,842926
0,561000	0,660706	3,217926
0,562000	0,623169	4,073639
0,563000	0,656891	4,999847
0,564000	0,637665	4,999847
0,565000	0,649109	4,999847
0,566000	0,647583	4,999847
0,567000	0,640717	4,999847
0,568000	0,657196	4,999847
0,569000	0,627441	4,401093
0,570000	0,657654	3,379974
0,571000	0,609436	4,479065
0,572000	0,666962	3,674774
0,573000	0,598145	4,999847
0,574000	0,674438	4,999847
0,575000	0,594788	4,999847
0,576000	0,660706	4,999847
0,577000	0,610199	4,999847
0,578000	0,619202	4,811096
0,579000	0,591583	3,096313
0,580000	0,615540	3,135071
0,581000	0,631256	4,745483
0,582000	0,610809	4,956665
0,583000	0,644989	4,999847
0,584000	0,603180	4,999847
0,585000	0,660706	4,999847
0,586000	0,596619	4,999847
0,587000	0,673981	4,999847
0,588000	0,579987	4,974060
0,589000	0,676117	3,789673
0,590000	0,598602	4,087372
0,591000	0,663605	3,340149
0,592000	0,616150	3,303070
0,593000	0,647278	4,999847
0,594000	0,634155	4,999847
0,595000	0,633240	4,999847
0,596000	0,649261	4,999847
0,597000	0,621490	4,999847
0,598000	0,664520	4,861908
0,599000	0,610199	3,681793
0,600000	0,677948	3,669281
0,601000	0,605164	4,130249
0,602000	0,549469	4,999847
0,603000	0,524597	4,999847
0,604000	0,578613	4,999847
0,605000	0,622253	4,999847
0,606000	0,643768	4,999847
0,607000	0,627594	4,999847
0,608000	0,664673	4,999847
0,609000	0,614624	3,954468
0,610000	0,678558	3,533173
0,611000	0,604248	4,643402
0,612000	0,693054	2,746887
0,613000	0,597229	4,999847
0,614000	0,702515	4,999847
0,615000	0,608215	4,999847
0,616000	0,682526	4,999847
0,617000	0,627441	4,999847
0,618000	0,663605	4,999847
0,619000	0,648651	3,380127
0,620000	0,650635	4,134369
0,621000	0,668640	3,857727
0,622000	0,641174	4,999847
0,623000	0,688171	4,999847
0,624000	0,631714	4,999847
0,625000	0,704803	4,999847
0,626000	0,623016	4,999847
0,627000	0,720367	4,999847
0,628000	0,614014	4,923706
0,629000	0,719147	4,125671
0,630000	0,636749	4,554596
0,631000	0,702667	3,092651
0,632000	0,659637	3,632050
0,633000	0,686493	4,999847
0,634000	0,679169	4,999847
0,635000	0,671692	4,999847
0,636000	0,697021	4,999847
0,637000	0,657043	4,999847
0,638000	0,712585	4,999847
0,639000	0,641479	3,347931
0,640000	0,725861	4,276276
0,641000	0,636444	3,441467
0,642000	0,743866	4,437408
0,643000	0,639954	4,999847
0,644000	0,734253	4,999847
0,645000	0,662537	4,999847
0,646000	0,717926	4,999847
0,647000	0,685730	4,999847
0,648000	0,704346	4,837494
0,649000	0,706329	4,462585
0,650000	0,685425	3,174896
0,651000	0,721283	4,096680
0,652000	0,671234	4,485168
0,653000	0,737762	4,999847
0,654000	0,660553	4,999847
0,655000	0,753174	4,999847
0,656000	0,649567	4,999847
0,657000	0,764618	4,999847
0,658000	0,664215	4,999847
0,659000	0,751495	2,618408
0,660000	0,688019	4,933472
0,661000	0,732117	3,468323
0,662000	0,709076	4,586334
0,663000	0,716400	4,999847
0,664000	0,727997	4,999847
0,665000	0,702362	4,999847
0,666000	0,745697	4,999847
0,667000	0,690155	4,999847
0,668000	0,761414	4,999847
0,669000	0,679626	4,843597
0,670000	0,776672	2,829285
0,671000	0,666656	4,497070
0,672000	0,781860	3,795013
0,673000	0,686951	4,999847
0,674000	0,758820	4,999847
0,675000	0,708466	4,999847
0,676000	0,740051	4,999847
0,677000	0,728302	4,999847
0,678000	0,725250	4,407196
0,679000	0,748138	3,368835
0,680000	0,701904	2,083893
0,681000	0,729980	4,242859
0,682000	0,678711	4,999847
0,683000	0,771637	4,999847
0,684000	0,681915	4,999847
0,685000	0,792389	4,999847
0,686000	0,682526	4,999847
0,687000	0,789490	4,999847
0,688000	0,710144	4,999847
0,689000	0,771637	4,706268
0,690000	0,732727	3,150787
0,691000	0,752563	4,285583
0,692000	0,752869	3,829346
0,693000	0,737915	4,999847
0,694000	0,771942	4,999847
0,695000	0,723572	4,999847
0,696000	0,787811	4,999847
0,697000	0,712891	4,999847
0,698000	0,804596	4,999847
0,699000	0,703430	3,872833
0,700000	0,820007	4,490051
0,701000	0,715179	3,861084
0,702000	0,813141	4,999847
0,703000	0,740509	4,999847
0,704000	0,796204	4,999847
0,705000	0,762939	4,999847
0,706000	0,780029	4,999847
0,707000	0,783081	4,999847
0,708000	0,764618	4,579773
0,709000	0,801239	4,557800
0,710000	0,750885	1,133728
0,711000	0,818024	4,234619
0,712000	0,737915	4,038391
0,713000	0,834503	4,999847
0,714000	0,722809	4,999847
0,715000	0,846252	4,999847
0,716000	0,746155	4,999847
0,717000	0,831451	4,999847
0,718000	0,768280	4,980316
0,719000	0,806274	3,764191
0,720000	0,785217	3,989105
0,721000	0,785217	4,599762
0,722000	0,802155	4,999847
0,723000	0,768738	4,999847
0,724000	0,820465	4,999847
0,725000	0,761566	4,999847
0,726000	0,841064	4,999847
0,727000	0,751801	4,999847
0,728000	0,858917	4,999847
0,729000	0,749207	4,813538
0,730000	0,870514	3,699188
0,731000	0,777435	3,976440
0,732000	0,860443	4,520264
0,733000	0,801392	4,999847
0,734000	0,839844	4,999847
0,735000	0,820618	4,999847
0,736000	0,820312	4,999847
0,737000	0,838623	4,999847
0,738000	0,803680	4,999847
0,739000	0,856628	4,008636
0,740000	0,789642	4,790649
0,741000	0,872650	2,978363
0,742000	0,777283	4,789429
0,743000	0,885315	4,999847
0,744000	0,782776	4,999847
0,745000	0,887909	4,999847
0,746000	0,804138	4,999847
0,747000	0,868378	4,999847
0,748000	0,824127	4,999847
0,749000	0,850830	4,513550
0,750000	0,845490	2,229004
0,751000	0,831146	4,999847
0,752000	0,861969	4,668121
0,753000	0,807800	4,758148
0,754000	0,874786	4,999847
0,755000	0,796051	4,999847
0,756000	0,887451	4,999847
0,757000	0,778809	4,999847
0,758000	0,892487	4,746399
0,759000	0,796661	3,067627
0,760000	0,886841	3,539276
0,761000	0,818787	4,999847
0,762000	0,863800	4,912720
0,763000	0,839539	4,999847
0,764000	0,846710	4,999847
0,765000	0,859985	4,999847
0,766000	0,828552	4,999847
0,767000	0,876160	4,999847
0,768000	0,814056	4,882965
0,769000	0,888519	4,189453
0,770000	0,797119	4,336243
0,771000	0,716553	4,474030
0,772000	0,680237	4,209595
0,773000	0,663452	4,999847
0,774000	0,655975	4,999847
0,775000	0,652161	4,999847
0,776000	0,650482	4,999847
0,777000	0,649414	4,999847
0,778000	0,648956	4,631805
0,779000	0,648651	3,925171
0,780000	0,648651	3,827209
0,781000	0,648346	3,587646
0,782000	0,648346	4,871674
0,783000	0,633392	4,999847
0,784000	0,637665	4,999847
0,785000	0,643768	4,999847
0,786000	0,646210	4,999847
0,787000	0,646820	4,999847
0,788000	0,647430	4,999847
0,789000	0,647430	4,320831
0,790000	0,647736	3,979034
0,791000	0,647888	3,934631
0,792000	0,599213	4,165649
0,793000	0,564728	4,999847
0,794000	0,546570	4,999847
0,795000	0,541229	4,999847
0,796000	0,538330	4,999847
0,797000	0,542297	4,999847
0,798000	0,539398	4,477234
0,799000	0,541840	3,796082
0,800000	0,542450	3,355408
0,801000	0,545349	3,230896
0,802000	0,548248	4,999847
0,803000	0,546570	4,999847
0,804000	0,545349	4,999847
0,805000	0,542297	4,999847
0,806000	0,541382	4,999847
0,807000	0,535736	4,999847
0,808000	0,534210	4,999847
0,809000	0,525970	3,368530
0,810000	0,533447	2,064362
0,811000	0,534821	4,288483
0,812000	0,540161	2,563934
0,813000	0,538330	4,999847
0,814000	0,545807	4,999847
0,815000	0,546417	4,999847
0,816000	0,552826	4,999847
0,817000	0,555267	4,999847
0,818000	0,554047	4,921570
0,819000	0,559540	3,609314
0,820000	0,554962	2,550049
0,821000	0,556183	4,733887
0,822000	0,559540	4,546204
0,823000	0,564575	4,999847
0,824000	0,567017	4,999847
0,825000	0,559998	4,999847
0,826000	0,564880	4,999847
0,827000	0,570068	4,999847
0,828000	0,566864	4,999847
0,829000	0,568542	3,894043
0,830000	0,568695	3,243256
0,831000	0,569763	3,511047
0,832000	0,568390	3,387451
0,833000	0,569000	4,999847
0,834000	0,570374	4,999847
0,835000	0,569611	4,999847
0,836000	0,568848	4,999847
0,837000	0,569763	4,999847
0,838000	0,572205	4,999847
0,839000	0,572205	3,658600
0,840000	0,575409	3,240967
0,841000	0,575409	3,500977
0,842000	0,576019	4,999847
0,843000	0,570984	4,999847
0,844000	0,566864	4,999847
0,845000	0,567322	4,999847
0,846000	0,569458	4,999847
0,847000	0,565033	4,999847
0,848000	0,552216	4,999847
0,849000	0,544434	4,624023
0,850000	0,534363	3,529663
0,851000	0,530853	4,999847
0,852000	0,522461	3,840790
0,853000	0,525665	4,999847
0,854000	0,518799	4,999847
0,855000	0,514374	4,999847
0,856000	0,516052	4,999847
0,857000	0,520477	4,999847
0,858000	0,514374	4,999847
0,859000	0,510712	2,826538
0,860000	0,516357	2,474823
0,861000	0,510559	4,700623
0,862000	0,512543	4,560852
0,863000	0,512390	4,999847
0,864000	0,500793	4,999847
0,865000	0,505371	4,999847
0,866000	0,485687	4,999847
0,867000	0,494080	4,999847
0,868000	0,485992	4,999847
0,869000	0,502930	3,739777
0,870000	0,499115	2,979584
0,871000	0,515747	4,769745
0,872000	0,514069	3,489838
0,873000	0,525818	4,999847
0,874000	0,525055	4,999847
0,875000	0,530548	4,999847
0,876000	0,534973	4,999847
0,877000	0,539398	4,999847
0,878000	0,537262	4,999847
0,879000	0,536194	3,508301
0,880000	0,538025	4,999847
0,881000	0,532379	4,393768
0,882000	0,538330	4,999847
0,883000	0,538330	4,999847
0,884000	0,544128	4,999847
0,885000	0,522919	4,999847
0,886000	0,513153	4,999847
0,887000	0,530548	4,999847
0,888000	0,543213	4,999847
0,889000	0,545197	3,558960
0,890000	0,547180	2,757111
0,891000	0,548248	4,510345
0,892000	0,552979	3,073425
0,893000	0,553436	4,999847
0,894000	0,554504	4,999847
0,895000	0,556335	4,999847
0,896000	0,556793	4,999847
0,897000	0,568390	4,999847
0,898000	0,558319	4,587250
0,899000	0,570831	2,801514
0,900000	0,559998	3,392334
0,901000	0,572815	2,845612
0,902000	0,566254	4,518127
0,903000	0,588989	4,999847
0,904000	0,585480	4,999847
0,905000	0,587311	4,999847
0,906000	0,586853	4,999847
0,907000	0,587006	4,999847
0,908000	0,591736	4,999847
0,909000	0,587616	4,395599
0,910000	0,596008	2,971497
0,911000	0,585937	4,268036
0,912000	0,597839	3,963776
0,913000	0,584259	4,999847
0,914000	0,600891	4,999847
0,915000	0,584106	4,999847
0,916000	0,596161	4,999847
0,917000	0,588531	4,999847
0,918000	0,597382	4,833221
0,919000	0,597382	2,935333
0,920000	0,597382	3,254242
0,921000	0,600739	3,490295
0,922000	0,595398	4,232330
0,923000	0,602112	4,999847
0,924000	0,593262	4,999847
0,925000	0,608978	4,999847
0,926000	0,597382	4,999847
0,927000	0,615845	4,999847
0,928000	0,598450	4,999847
0,929000	0,618591	4,224243
0,930000	0,607758	2,176056
0,931000	0,618896	4,651184
0,932000	0,613403	3,326569
0,933000	0,618286	4,999847
0,934000	0,616302	4,999847
0,935000	0,615692	4,999847
0,936000	0,621948	4,999847
0,937000	0,612030	4,999847
0,938000	0,625305	4,261322
0,939000	0,612183	3,330841
0,940000	0,630188	3,190460
0,941000	0,607147	4,526062
0,942000	0,633392	4,650116
0,943000	0,603943	4,999847
0,944000	0,630951	4,999847
0,945000	0,613251	4,999847
0,946000	0,622406	4,999847
0,947000	0,616608	4,999847
0,948000	0,624695	4,940491
0,949000	0,628204	4,209747
0,950000	0,625153	3,947144
0,951000	0,635681	3,247070
0,952000	0,622864	4,102020
0,953000	0,641327	4,999847
0,954000	0,617218	4,999847
0,955000	0,645294	4,999847
0,956000	0,608368	4,999847
0,957000	0,646820	4,999847
0,958000	0,611725	4,999847
0,959000	0,639801	4,038391
0,960000	0,604553	3,680420
0,961000	0,592041	3,463898
0,962000	0,577393	4,999847
0,963000	0,578308	4,999847
0,964000	0,587616	4,999847
0,965000	0,577698	4,999847
0,966000	0,603180	4,999847
0,967000	0,580902	4,999847
0,968000	0,618286	4,735107
0,969000	0,559845	4,193573
0,970000	0,618744	3,341522
0,971000	0,559845	4,999847
0,972000	0,641479	4,191284
0,973000	0,593567	4,999847
0,974000	0,633240	4,999847
0,975000	0,602112	4,999847
0,976000	0,623474	4,999847
0,977000	0,622253	4,999847
0,978000	0,620117	4,999847
0,979000	0,636444	3,961945
0,980000	0,614929	2,817688
0,981000	0,644836	4,022827
0,982000	0,606384	4,999847
0,983000	0,653992	4,999847
0,984000	0,595856	4,999847
0,985000	0,661469	4,999847
0,986000	0,594788	4,999847
0,987000	0,656433	4,999847
0,988000	0,580597	4,999847
0,989000	0,607300	4,999847
0,990000	0,602570	2,754517
0,991000	0,618286	4,018707
0,992000	0,620270	4,626007
0,993000	0,606995	4,999847
0,994000	0,634918	4,999847
0,995000	0,605927	4,999847
0,996000	0,652161	4,999847
0,997000	0,602417	4,999847
0,998000	0,665894	4,652252
0,999000	0,595551	3,465118

