LabVIEW Measurement	
Writer_Version	2
Reader_Version	2
Separator	Tab
Decimal_Separator	,
Multi_Headings	Yes
X_Columns	One
Time_Pref	Absolute
Operator	d.nicolai
Date	2023/11/09
Time	16:04:05,6565121999996605588
***End_of_Header***	
	
Channels	2		
Samples	1000	1000	
Date	2023/11/09	2023/11/09	
Time	16:04:35,4735126999997553149	16:04:35,4735126999997553149	
Y_Unit_Label	Volts	Volts	
X_Dimension	Time	Time	
X0	0,0000000000000000E+0	0,0000000000000000E+0	
Delta_X	0,001000	0,001000	
***End_of_Header***			
X_Value	powebox	triggerbox	Comment
0,000000	0,599060	1,000671
0,001000	0,531311	4,999847
0,002000	0,591888	4,999847
0,003000	0,554504	4,999847
0,004000	0,590210	4,999847
0,005000	0,564270	4,999847
0,006000	0,583801	4,999847
0,007000	0,577087	4,929962
0,008000	0,577240	4,999847
0,009000	0,590363	3,935547
0,010000	0,570374	3,709564
0,011000	0,597076	3,332520
0,012000	0,565643	4,964447
0,013000	0,603943	4,999847
0,014000	0,565338	4,999847
0,015000	0,617218	4,999847
0,016000	0,552826	4,999847
0,017000	0,609283	4,999847
0,018000	0,569611	4,661407
0,019000	0,604248	3,507996
0,020000	0,588684	2,963257
0,021000	0,600281	4,999847
0,022000	0,603180	4,999847
0,023000	0,598145	4,999847
0,024000	0,615692	4,999847
0,025000	0,589905	4,999847
0,026000	0,622101	4,999847
0,027000	0,587158	4,999847
0,028000	0,632019	4,999847
0,029000	0,576324	3,805237
0,030000	0,637512	4,335785
0,031000	0,582733	3,634338
0,032000	0,628204	4,028625
0,033000	0,590363	4,999847
0,034000	0,613556	4,999847
0,035000	0,601959	4,999847
0,036000	0,583344	4,999847
0,037000	0,595398	4,999847
0,038000	0,596313	4,676208
0,039000	0,627136	2,940979
0,040000	0,598755	2,009583
0,041000	0,640869	4,078369
0,042000	0,592194	4,999847
0,043000	0,650330	4,999847
0,044000	0,586700	4,999847
0,045000	0,652771	4,999847
0,046000	0,597229	4,999847
0,047000	0,639648	4,999847
0,048000	0,599823	4,967804
0,049000	0,626068	3,602753
0,050000	0,624847	4,999847
0,051000	0,623932	3,511047
0,052000	0,635376	4,091644
0,053000	0,615387	4,999847
0,054000	0,648651	4,999847
0,055000	0,603333	4,999847
0,056000	0,654907	4,999847
0,057000	0,597839	4,999847
0,058000	0,667267	4,999847
0,059000	0,597229	2,874298
0,060000	0,664825	4,540405
0,061000	0,614319	4,999847
0,062000	0,649719	4,999847
0,063000	0,619202	4,999847
0,064000	0,630341	4,999847
0,065000	0,628052	4,999847
0,066000	0,616455	4,999847
0,067000	0,642700	4,999847
0,068000	0,610809	4,999847
0,069000	0,656433	3,612061
0,070000	0,606079	3,315887
0,071000	0,664062	3,329620
0,072000	0,597076	4,035187
0,073000	0,681610	4,999847
0,074000	0,603027	4,999847
0,075000	0,671387	4,999847
0,076000	0,623627	4,999847
0,077000	0,657043	4,999847
0,078000	0,635681	4,459229
0,079000	0,637665	2,670441
0,080000	0,634308	3,444366
0,081000	0,613251	4,312439
0,082000	0,639191	4,999847
0,083000	0,600739	4,999847
0,084000	0,665436	4,999847
0,085000	0,595245	4,999847
0,086000	0,675049	4,999847
0,087000	0,578461	4,999847
0,088000	0,679321	4,999847
0,089000	0,591583	4,100037
0,090000	0,656891	2,717285
0,091000	0,612640	4,062500
0,092000	0,647736	4,804687
0,093000	0,642090	4,999847
0,094000	0,646210	4,999847
0,095000	0,663452	4,999847
0,096000	0,636444	4,999847
0,097000	0,552673	4,999847
0,098000	0,515442	4,999847
0,099000	0,508270	3,599701
0,100000	0,647888	2,856903
0,101000	0,585785	4,092560
0,102000	0,697327	4,999847
0,103000	0,594940	4,999847
0,104000	0,681000	4,999847
0,105000	0,623779	4,999847
0,106000	0,665283	4,999847
0,107000	0,651703	4,999847
0,108000	0,657196	4,616241
0,109000	0,668793	3,597565
0,110000	0,631409	4,383392
0,111000	0,672302	3,539734
0,112000	0,624237	4,048309
0,113000	0,699158	4,999847
0,114000	0,628510	4,999847
0,115000	0,718384	4,999847
0,116000	0,626984	4,999847
0,117000	0,725555	4,999847
0,118000	0,643005	4,371338
0,119000	0,707092	2,445984
0,120000	0,661163	2,477264
0,121000	0,689697	4,195404
0,122000	0,681305	4,966736
0,123000	0,666199	4,999847
0,124000	0,693817	4,999847
0,125000	0,662231	4,999847
0,126000	0,706940	4,999847
0,127000	0,639191	4,999847
0,128000	0,723724	4,515381
0,129000	0,635834	4,165344
0,130000	0,728302	4,501190
0,131000	0,635223	3,322754
0,132000	0,736237	4,999847
0,133000	0,664062	4,999847
0,134000	0,719757	4,999847
0,135000	0,686493	4,999847
0,136000	0,707550	4,999847
0,137000	0,695648	4,999847
0,138000	0,671844	4,426880
0,139000	0,684662	3,108368
0,140000	0,655823	2,716064
0,141000	0,727386	4,493408
0,142000	0,659943	4,999847
0,143000	0,749512	4,999847
0,144000	0,652313	4,999847
0,145000	0,764160	4,999847
0,146000	0,659485	4,999847
0,147000	0,750275	4,999847
0,148000	0,683441	4,999847
0,149000	0,730133	4,523010
0,150000	0,703888	3,649292
0,151000	0,715485	2,758484
0,152000	0,724792	4,583588
0,153000	0,699158	4,999847
0,154000	0,740967	4,999847
0,155000	0,688171	4,999847
0,156000	0,749054	4,999847
0,157000	0,674133	4,999847
0,158000	0,773468	4,999847
0,159000	0,669098	4,106293
0,160000	0,787201	2,867279
0,161000	0,690460	4,893036
0,162000	0,769348	4,999847
0,163000	0,711670	4,999847
0,164000	0,746460	4,999847
0,165000	0,729065	4,999847
0,166000	0,728607	4,999847
0,167000	0,746307	4,999847
0,168000	0,710907	4,542389
0,169000	0,762024	3,644257
0,170000	0,696716	3,005676
0,171000	0,776978	3,759460
0,172000	0,686493	4,952545
0,173000	0,792236	4,999847
0,174000	0,680695	4,999847
0,175000	0,790863	4,999847
0,176000	0,704956	4,999847
0,177000	0,770416	4,999847
0,178000	0,727081	4,999847
0,179000	0,752411	2,717590
0,180000	0,748749	3,863525
0,181000	0,737000	4,592590
0,182000	0,766907	4,999847
0,183000	0,721436	4,999847
0,184000	0,783081	4,999847
0,185000	0,701447	4,999847
0,186000	0,784912	4,999847
0,187000	0,691376	4,999847
0,188000	0,809174	4,999847
0,189000	0,700836	3,632660
0,190000	0,795898	3,259125
0,191000	0,727234	2,855530
0,192000	0,777130	4,093475
0,193000	0,748749	4,999847
0,194000	0,761566	4,999847
0,195000	0,770264	4,999847
0,196000	0,748291	4,999847
0,197000	0,789032	4,999847
0,198000	0,735931	4,999847
0,199000	0,806274	3,479156
0,200000	0,724945	2,716827
0,201000	0,823212	4,905701
0,202000	0,714569	4,999847
0,203000	0,834961	4,999847
0,204000	0,731506	4,999847
0,205000	0,820007	4,999847
0,206000	0,757599	4,999847
0,207000	0,803375	4,999847
0,208000	0,780334	4,998322
0,209000	0,786743	3,234558
0,210000	0,799866	3,940735
0,211000	0,771942	3,386993
0,212000	0,818176	4,740753
0,213000	0,760193	4,999847
0,214000	0,836334	4,999847
0,215000	0,750275	4,999847
0,216000	0,853729	4,999847
0,217000	0,739441	4,999847
0,218000	0,858154	4,999847
0,219000	0,762939	3,400116
0,220000	0,841217	3,042755
0,221000	0,786591	4,999847
0,222000	0,822601	4,999847
0,223000	0,806580	4,999847
0,224000	0,807037	4,999847
0,225000	0,826874	4,999847
0,226000	0,792999	4,999847
0,227000	0,846405	4,999847
0,228000	0,780029	4,999847
0,229000	0,864258	4,999847
0,230000	0,766754	4,228058
0,231000	0,878754	4,065704
0,232000	0,770874	3,944244
0,233000	0,882111	4,642029
0,234000	0,794067	4,999847
0,235000	0,860443	4,999847
0,236000	0,814667	4,999847
0,237000	0,839386	4,994049
0,238000	0,833435	4,799500
0,239000	0,822144	3,674011
0,240000	0,852509	2,513428
0,241000	0,787964	4,999847
0,242000	0,857697	4,999847
0,243000	0,783386	4,999847
0,244000	0,881500	4,999847
0,245000	0,774689	4,999847
0,246000	0,892792	4,999847
0,247000	0,788116	4,999847
0,248000	0,879364	4,769135
0,249000	0,810699	3,712616
0,250000	0,856781	2,832336
0,251000	0,830994	3,598785
0,252000	0,841675	4,124908
0,253000	0,852966	4,389496
0,254000	0,828094	4,999847
0,255000	0,873108	4,999847
0,256000	0,813904	4,999847
0,257000	0,887604	4,999847
0,258000	0,792542	4,337463
0,259000	0,895386	3,391724
0,260000	0,783539	4,066620
0,261000	0,899200	4,740906
0,262000	0,807648	4,713287
0,263000	0,879211	4,999847
0,264000	0,828400	4,999847
0,265000	0,863647	4,999847
0,266000	0,751648	4,999847
0,267000	0,698700	4,999847
0,268000	0,674591	4,999847
0,269000	0,663605	4,058838
0,270000	0,658264	4,252472
0,271000	0,656586	4,271240
0,272000	0,655518	4,949799
0,273000	0,655060	4,999847
0,274000	0,654449	4,999847
0,275000	0,654144	4,999847
0,276000	0,653992	4,999847
0,277000	0,653381	4,934387
0,278000	0,653229	4,999847
0,279000	0,653534	3,471069
0,280000	0,653229	2,727661
0,281000	0,653229	4,999847
0,282000	0,653534	4,953003
0,283000	0,653076	4,999847
0,284000	0,653229	4,999847
0,285000	0,653076	4,999847
0,286000	0,652924	4,999847
0,287000	0,630188	4,999847
0,288000	0,556793	4,999847
0,289000	0,526123	4,320984
0,290000	0,520477	3,080597
0,291000	0,514374	3,379974
0,292000	0,513916	4,321289
0,293000	0,515900	4,999847
0,294000	0,516815	4,999847
0,295000	0,515442	4,999847
0,296000	0,514069	4,999847
0,297000	0,520020	4,999847
0,298000	0,529633	4,339905
0,299000	0,532990	3,667755
0,300000	0,538635	2,350311
0,301000	0,538788	4,383850
0,302000	0,542450	4,183044
0,303000	0,542908	4,999847
0,304000	0,544281	4,999847
0,305000	0,543671	4,999847
0,306000	0,546570	4,999847
0,307000	0,545502	4,999847
0,308000	0,544128	4,999847
0,309000	0,548859	3,880920
0,310000	0,546265	3,100281
0,311000	0,548248	3,415680
0,312000	0,543365	4,089508
0,313000	0,541840	4,999847
0,314000	0,536804	4,999847
0,315000	0,533600	4,999847
0,316000	0,525360	4,999847
0,317000	0,523529	4,999847
0,318000	0,523224	4,999847
0,319000	0,529022	3,280334
0,320000	0,521088	3,674469
0,321000	0,517426	4,999847
0,322000	0,517120	4,999847
0,323000	0,511780	4,999847
0,324000	0,511780	4,999847
0,325000	0,509796	4,999847
0,326000	0,514374	4,999847
0,327000	0,511932	4,999847
0,328000	0,517578	4,999847
0,329000	0,516510	3,866577
0,330000	0,517426	3,337402
0,331000	0,516510	3,684692
0,332000	0,516968	4,111786
0,333000	0,511932	4,999847
0,334000	0,516205	4,999847
0,335000	0,501556	4,999847
0,336000	0,492249	4,999847
0,337000	0,496063	4,999847
0,338000	0,499420	4,892578
0,339000	0,499420	3,558807
0,340000	0,503540	3,869324
0,341000	0,504303	3,515472
0,342000	0,506439	4,807587
0,343000	0,487366	4,999847
0,344000	0,487671	4,999847
0,345000	0,484009	4,999847
0,346000	0,496826	4,999847
0,347000	0,507202	4,999847
0,348000	0,514832	4,993896
0,349000	0,521393	4,205627
0,350000	0,523834	4,933472
0,351000	0,527954	4,110565
0,352000	0,530090	4,176331
0,353000	0,530243	4,999847
0,354000	0,518036	4,999847
0,355000	0,517883	4,999847
0,356000	0,519257	4,999847
0,357000	0,522156	4,999847
0,358000	0,513763	4,569550
0,359000	0,521240	3,600159
0,360000	0,521393	3,802032
0,361000	0,524597	3,838043
0,362000	0,525360	4,999847
0,363000	0,527039	4,999847
0,364000	0,535431	4,999847
0,365000	0,536194	4,999847
0,366000	0,535583	4,999847
0,367000	0,536194	4,999847
0,368000	0,537567	4,999847
0,369000	0,532837	4,484558
0,370000	0,540314	2,560577
0,371000	0,538483	3,991394
0,372000	0,545197	4,042969
0,373000	0,536652	4,999847
0,374000	0,542908	4,999847
0,375000	0,536499	4,999847
0,376000	0,541534	4,999847
0,377000	0,527039	4,999847
0,378000	0,526886	4,935303
0,379000	0,531769	2,973328
0,380000	0,523224	2,758331
0,381000	0,534821	4,284210
0,382000	0,538025	4,997101
0,383000	0,552979	4,999847
0,384000	0,536499	4,999847
0,385000	0,555420	4,999847
0,386000	0,527802	4,999847
0,387000	0,557251	4,999847
0,388000	0,528259	4,962463
0,389000	0,550995	4,136353
0,390000	0,535431	4,350433
0,391000	0,546417	4,874878
0,392000	0,543213	4,076385
0,393000	0,544281	4,999847
0,394000	0,550537	4,999847
0,395000	0,549469	4,999847
0,396000	0,561371	4,999847
0,397000	0,546570	4,999847
0,398000	0,567474	4,125977
0,399000	0,530396	3,726349
0,400000	0,566406	1,653442
0,401000	0,531769	4,993896
0,402000	0,569305	4,999847
0,403000	0,542297	4,999847
0,404000	0,563202	4,999847
0,405000	0,542297	4,999847
0,406000	0,556183	4,999847
0,407000	0,552063	4,999847
0,408000	0,551147	4,999847
0,409000	0,557556	3,654480
0,410000	0,539246	4,746857
0,411000	0,564728	3,398437
0,412000	0,542145	4,063873
0,413000	0,574188	4,999847
0,414000	0,538788	4,999847
0,415000	0,584412	4,999847
0,416000	0,539246	4,999847
0,417000	0,581512	4,999847
0,418000	0,550079	4,829559
0,419000	0,574799	3,525696
0,420000	0,561981	3,675079
0,421000	0,570679	3,814392
0,422000	0,575256	4,999847
0,423000	0,572662	4,999847
0,424000	0,587921	4,999847
0,425000	0,570679	4,999847
0,426000	0,596161	4,999847
0,427000	0,571136	4,999847
0,428000	0,605316	4,126129
0,429000	0,562897	4,450226
0,430000	0,609589	3,641205
0,431000	0,568542	3,548126
0,432000	0,603485	3,884277
0,433000	0,580139	4,999847
0,434000	0,599365	4,999847
0,435000	0,592499	4,999847
0,436000	0,594482	4,999847
0,437000	0,598755	4,999847
0,438000	0,588531	3,802948
0,439000	0,608826	3,289795
0,440000	0,585785	3,419952
0,441000	0,616913	3,700562
0,442000	0,584564	4,428253
0,443000	0,625153	4,999847
0,444000	0,586700	4,999847
0,445000	0,630341	4,999847
0,446000	0,565643	4,999847
0,447000	0,612183	4,999847
0,448000	0,602570	4,999847
0,449000	0,620575	3,844147
0,450000	0,618591	3,198700
0,451000	0,619049	3,430328
0,452000	0,628510	4,226074
0,453000	0,615692	4,999847
0,454000	0,636749	4,999847
0,455000	0,606689	4,999847
0,456000	0,640717	4,999847
0,457000	0,596771	4,999847
0,458000	0,645294	4,008484
0,459000	0,594330	3,933411
0,460000	0,644379	2,201233
0,461000	0,605621	4,999847
0,462000	0,632019	4,999847
0,463000	0,609589	4,999847
0,464000	0,621643	4,999847
0,465000	0,620270	4,999847
0,466000	0,612946	4,999847
0,467000	0,628967	4,999847
0,468000	0,610504	4,583588
0,469000	0,643921	4,690094
0,470000	0,605164	3,652191
0,471000	0,653381	2,966461
0,472000	0,597992	4,999847
0,473000	0,660858	4,999847
0,474000	0,603485	4,999847
0,475000	0,652466	4,999847
0,476000	0,618134	4,999847
0,477000	0,645447	4,999847
0,478000	0,632477	4,294586
0,479000	0,638123	3,756256
0,480000	0,642548	3,899536
0,481000	0,626678	4,334717
0,482000	0,649414	4,999847
0,483000	0,620728	4,999847
0,484000	0,663147	4,999847
0,485000	0,616913	4,999847
0,486000	0,673828	4,999847
0,487000	0,608368	4,999847
0,488000	0,676117	4,999847
0,489000	0,614624	4,131622
0,490000	0,663300	3,702240
0,491000	0,632019	3,289032
0,492000	0,652924	3,601685
0,493000	0,644073	4,795837
0,494000	0,642395	4,999847
0,495000	0,653992	4,999847
0,496000	0,629578	4,999847
0,497000	0,667114	4,999847
0,498000	0,629120	4,975128
0,499000	0,681915	3,879242
0,500000	0,623016	2,830048
0,501000	0,691681	4,922028
0,502000	0,618744	4,999847
0,503000	0,689850	4,999847
0,504000	0,632172	4,999847
0,505000	0,676270	4,999847
0,506000	0,650787	4,999847
0,507000	0,667267	4,999847
0,508000	0,665588	4,999847
0,509000	0,657043	4,079895
0,510000	0,677338	2,232208
0,511000	0,644379	4,801331
0,512000	0,687408	4,697571
0,513000	0,634155	4,999847
0,514000	0,698547	4,999847
0,515000	0,634613	4,999847
0,516000	0,712738	4,999847
0,517000	0,638275	4,854736
0,518000	0,703888	4,999847
0,519000	0,651855	3,109283
0,520000	0,688019	2,834930
0,521000	0,664673	3,892517
0,522000	0,668640	4,999847
0,523000	0,674133	4,999847
0,524000	0,648499	4,999847
0,525000	0,683289	4,999847
0,526000	0,643158	4,999847
0,527000	0,700378	4,999847
0,528000	0,637970	4,999847
0,529000	0,716553	4,150848
0,530000	0,640106	2,532501
0,531000	0,729828	4,362793
0,532000	0,657959	4,791718
0,533000	0,718994	4,999847
0,534000	0,637512	4,999847
0,535000	0,603790	4,999847
0,536000	0,585937	4,999847
0,537000	0,627899	4,999847
0,538000	0,669403	4,717255
0,539000	0,685120	3,375854
0,540000	0,674744	3,513031
0,541000	0,702515	4,322510
0,542000	0,652924	4,893341
0,543000	0,708923	4,999847
0,544000	0,628815	4,999847
0,545000	0,717621	4,999847
0,546000	0,616455	4,999847
0,547000	0,726624	4,999847
0,548000	0,597076	4,999847
0,549000	0,685272	3,990479
0,550000	0,635529	3,656158
0,551000	0,684662	4,458771
0,552000	0,667267	4,408875
0,553000	0,674286	4,999847
0,554000	0,690765	4,999847
0,555000	0,667419	4,999847
0,556000	0,713654	4,999847
0,557000	0,666504	4,999847
0,558000	0,736237	4,999847
0,559000	0,637512	3,266754
0,560000	0,723724	2,673492
0,561000	0,632629	4,423523
0,562000	0,731964	4,902649
0,563000	0,653229	4,999847
0,564000	0,717468	4,999847
0,565000	0,679932	4,999847
0,566000	0,710754	4,999847
0,567000	0,701599	4,999847
0,568000	0,700836	4,999847
0,569000	0,718994	3,858795
0,570000	0,690918	3,252411
0,571000	0,733643	3,836670
0,572000	0,679932	3,451080
0,573000	0,746460	4,999847
0,574000	0,673981	4,999847
0,575000	0,760040	4,999847
0,576000	0,673828	4,999847
0,577000	0,763092	4,999847
0,578000	0,694427	4,270935
0,579000	0,748596	3,347778
0,580000	0,712433	2,799377
0,581000	0,731201	4,999847
0,582000	0,727081	4,547424
0,583000	0,719299	4,999847
0,584000	0,743866	4,999847
0,585000	0,702209	4,999847
0,586000	0,754242	4,999847
0,587000	0,690918	4,999847
0,588000	0,766754	4,999847
0,589000	0,673981	3,166351
0,590000	0,777283	4,744568
0,591000	0,683441	3,339691
0,592000	0,771942	4,380646
0,593000	0,707092	4,999847
0,594000	0,756683	4,999847
0,595000	0,727081	4,999847
0,596000	0,738831	4,999847
0,597000	0,742493	4,999847
0,598000	0,721588	4,999847
0,599000	0,757294	3,253937
0,600000	0,709076	2,941589
0,601000	0,772858	4,895782
0,602000	0,696564	4,911041
0,603000	0,786285	4,999847
0,604000	0,687256	4,999847
0,605000	0,799408	4,999847
0,606000	0,706329	4,999847
0,607000	0,785980	4,999847
0,608000	0,724792	4,999847
0,609000	0,765991	4,053802
0,610000	0,744171	4,111481
0,611000	0,748749	3,004150
0,612000	0,759888	4,262390
0,613000	0,724335	4,999847
0,614000	0,773010	4,999847
0,615000	0,716248	4,999847
0,616000	0,790863	4,999847
0,617000	0,703888	4,999847
0,618000	0,804749	4,332275
0,619000	0,700989	3,126984
0,620000	0,816345	4,352264
0,621000	0,722198	3,059845
0,622000	0,793457	4,997406
0,623000	0,742493	4,999847
0,624000	0,772400	4,999847
0,625000	0,761414	4,999847
0,626000	0,757751	4,999847
0,627000	0,781555	4,999847
0,628000	0,743866	4,999847
0,629000	0,797729	4,306488
0,630000	0,726624	3,659821
0,631000	0,811310	4,924316
0,632000	0,712280	3,274536
0,633000	0,825195	4,999847
0,634000	0,717316	4,999847
0,635000	0,817566	4,999847
0,636000	0,740814	4,999847
0,637000	0,796814	4,999847
0,638000	0,762024	4,167633
0,639000	0,781860	3,176270
0,640000	0,783844	4,999847
0,641000	0,772095	3,567657
0,642000	0,804596	4,933777
0,643000	0,756378	4,999847
0,644000	0,820465	4,999847
0,645000	0,744019	4,999847
0,646000	0,837860	4,999847
0,647000	0,729980	4,999847
0,648000	0,850372	4,600525
0,649000	0,746155	4,002838
0,650000	0,829010	3,975830
0,651000	0,748901	3,574982
0,652000	0,804291	4,999847
0,653000	0,784302	4,999847
0,654000	0,797577	4,999847
0,655000	0,808258	4,999847
0,656000	0,787048	4,999847
0,657000	0,829468	4,999847
0,658000	0,775604	4,925537
0,659000	0,848389	3,992157
0,660000	0,761566	4,015808
0,661000	0,864258	3,903503
0,662000	0,752411	4,978943
0,663000	0,872955	4,999847
0,664000	0,774689	4,999847
0,665000	0,848999	4,999847
0,666000	0,793457	4,999847
0,667000	0,824585	4,999847
0,668000	0,811615	4,758301
0,669000	0,803986	4,108124
0,670000	0,829620	4,153442
0,671000	0,794983	3,177338
0,672000	0,851135	4,616089
0,673000	0,782166	4,999847
0,674000	0,869598	4,999847
0,675000	0,773468	4,999847
0,676000	0,884857	4,999847
0,677000	0,779572	4,999847
0,678000	0,889587	4,822388
0,679000	0,802002	3,572998
0,680000	0,867462	3,973389
0,681000	0,822296	4,999847
0,682000	0,847778	4,999847
0,683000	0,842438	4,999847
0,684000	0,827637	4,999847
0,685000	0,859680	4,999847
0,686000	0,810699	4,999847
0,687000	0,876160	4,999847
0,688000	0,797119	4,999847
0,689000	0,890045	4,343109
0,690000	0,785828	2,384186
0,691000	0,897369	4,400177
0,692000	0,799255	4,237213
0,693000	0,894623	4,999847
0,694000	0,823364	4,999847
0,695000	0,875092	4,999847
0,696000	0,844574	4,999847
0,697000	0,856323	4,999847
0,698000	0,864410	4,061584
0,699000	0,838928	3,411560
0,700000	0,881195	3,421631
0,701000	0,823212	3,204498
0,702000	0,893097	4,999847
0,703000	0,807800	4,999847
0,704000	0,722809	4,999847
0,705000	0,684204	4,999847
0,706000	0,666351	4,999847
0,707000	0,658264	4,999847
0,708000	0,654907	4,999847
0,709000	0,652924	4,562225
0,710000	0,651855	2,970428
0,711000	0,651245	2,385712
0,712000	0,650940	4,429321
0,713000	0,651093	4,999847
0,714000	0,650787	4,999847
0,715000	0,650940	4,999847
0,716000	0,650940	4,999847
0,717000	0,650787	4,999847
0,718000	0,651093	4,665985
0,719000	0,651245	3,979034
0,720000	0,651550	2,765198
0,721000	0,651093	4,142609
0,722000	0,651093	4,935303
0,723000	0,650330	4,999847
0,724000	0,650787	4,999847
0,725000	0,603027	4,999847
0,726000	0,570221	4,999847
0,727000	0,559692	4,999847
0,728000	0,550232	4,447632
0,729000	0,535736	4,661865
0,730000	0,536804	2,808380
0,731000	0,536041	4,841461
0,732000	0,538483	4,429779
0,733000	0,541077	4,999847
0,734000	0,541077	4,999847
0,735000	0,545807	4,999847
0,736000	0,549469	4,999847
0,737000	0,550537	4,999847
0,738000	0,551758	4,366150
0,739000	0,550385	3,711853
0,740000	0,549622	4,533081
0,741000	0,550232	4,973145
0,742000	0,551453	4,999847
0,743000	0,556183	4,999847
0,744000	0,558319	4,999847
0,745000	0,561523	4,999847
0,746000	0,563049	4,999847
0,747000	0,565491	4,999847
0,748000	0,564728	4,984894
0,749000	0,562592	3,909454
0,750000	0,561218	4,580078
0,751000	0,560760	3,525238
0,752000	0,561981	4,809723
0,753000	0,532684	4,999847
0,754000	0,543976	4,999847
0,755000	0,540466	4,999847
0,756000	0,534363	4,999847
0,757000	0,527191	4,999847
0,758000	0,525665	4,560699
0,759000	0,518188	3,580475
0,760000	0,521393	2,317352
0,761000	0,514069	3,654785
0,762000	0,513611	4,999847
0,763000	0,514069	4,999847
0,764000	0,515900	4,999847
0,765000	0,507050	4,999847
0,766000	0,499878	4,999847
0,767000	0,500793	4,999847
0,768000	0,502625	4,999847
0,769000	0,513763	3,689728
0,770000	0,520477	4,999847
0,771000	0,528564	3,247375
0,772000	0,530243	4,918518
0,773000	0,535583	4,727325
0,774000	0,538483	4,999847
0,775000	0,550995	4,999847
0,776000	0,550232	4,999847
0,777000	0,552216	4,999847
0,778000	0,549774	4,524994
0,779000	0,550842	3,538513
0,780000	0,548096	1,397552
0,781000	0,545959	4,740448
0,782000	0,546265	4,999847
0,783000	0,543518	4,999847
0,784000	0,543671	4,999847
0,785000	0,539398	4,999847
0,786000	0,537567	4,999847
0,787000	0,532837	4,999847
0,788000	0,536499	4,999847
0,789000	0,536346	4,560089
0,790000	0,542145	4,160767
0,791000	0,539398	3,365936
0,792000	0,541992	4,122314
0,793000	0,540009	4,999847
0,794000	0,540466	4,999847
0,795000	0,539398	4,999847
0,796000	0,539703	4,999847
0,797000	0,540466	4,999847
0,798000	0,542145	4,999847
0,799000	0,545044	2,767334
0,800000	0,541840	4,158173
0,801000	0,546875	3,844604
0,802000	0,545654	4,627838
0,803000	0,545807	4,999847
0,804000	0,540466	4,999847
0,805000	0,531769	4,999847
0,806000	0,534515	4,999847
0,807000	0,539246	4,999847
0,808000	0,540314	4,999847
0,809000	0,536041	4,923248
0,810000	0,529175	4,828033
0,811000	0,526276	4,035187
0,812000	0,530396	3,873138
0,813000	0,535431	4,999847
0,814000	0,536652	4,999847
0,815000	0,541534	4,999847
0,816000	0,536499	4,999847
0,817000	0,543213	4,999847
0,818000	0,542145	4,999847
0,819000	0,548553	2,859650
0,820000	0,545502	1,458893
0,821000	0,548553	4,967041
0,822000	0,548553	4,999847
0,823000	0,551453	4,999847
0,824000	0,552063	4,999847
0,825000	0,550842	4,999847
0,826000	0,553131	4,999847
0,827000	0,550842	4,999847
0,828000	0,556030	4,999847
0,829000	0,550995	3,754425
0,830000	0,559082	3,414764
0,831000	0,547943	4,139404
0,832000	0,559845	4,353638
0,833000	0,546722	4,999847
0,834000	0,560760	4,999847
0,835000	0,562439	4,999847
0,836000	0,567017	4,999847
0,837000	0,558014	4,999847
0,838000	0,556183	4,600830
0,839000	0,559845	3,610535
0,840000	0,554504	2,081604
0,841000	0,563202	4,384918
0,842000	0,547791	4,999847
0,843000	0,564117	4,999847
0,844000	0,547180	4,999847
0,845000	0,565948	4,999847
0,846000	0,558777	4,999847
0,847000	0,581818	4,999847
0,848000	0,562592	4,999847
0,849000	0,580444	3,765259
0,850000	0,572052	2,238159
0,851000	0,585785	3,883514
0,852000	0,586853	4,188995
0,853000	0,588989	4,999847
0,854000	0,591583	4,999847
0,855000	0,569000	4,999847
0,856000	0,564575	4,999847
0,857000	0,558014	4,999847
0,858000	0,587158	4,429016
0,859000	0,576782	3,471375
0,860000	0,600281	3,614960
0,861000	0,585175	4,999847
0,862000	0,607758	4,571381
0,863000	0,592651	4,999847
0,864000	0,606537	4,999847
0,865000	0,599213	4,999847
0,866000	0,605774	4,999847
0,867000	0,605164	4,999847
0,868000	0,604248	4,999847
0,869000	0,608673	3,830566
0,870000	0,603027	3,772125
0,871000	0,615997	3,419189
0,872000	0,599518	4,465942
0,873000	0,619965	4,999847
0,874000	0,595703	4,999847
0,875000	0,623016	4,999847
0,876000	0,591888	4,999847
0,877000	0,617218	4,999847
0,878000	0,595093	4,530792
0,879000	0,611877	2,661896
0,880000	0,604706	2,229004
0,881000	0,610657	4,603271
0,882000	0,609131	4,988708
0,883000	0,603638	4,999847
0,884000	0,616150	4,999847
0,885000	0,595093	4,999847
0,886000	0,619049	4,999847
0,887000	0,591583	4,999847
0,888000	0,624237	4,999847
0,889000	0,585327	3,870850
0,890000	0,630188	3,649902
0,891000	0,597534	3,803864
0,892000	0,626526	4,090729
0,893000	0,595703	4,999847
0,894000	0,612640	4,999847
0,895000	0,599213	4,999847
0,896000	0,605164	4,999847
0,897000	0,615234	4,999847
0,898000	0,609283	4,222107
0,899000	0,628357	3,816376
0,900000	0,611420	3,369293
0,901000	0,640106	4,999847
0,902000	0,615387	4,321136
0,903000	0,651093	4,999847
0,904000	0,616913	4,999847
0,905000	0,655365	4,999847
0,906000	0,619507	4,999847
0,907000	0,646820	4,999847
0,908000	0,628967	4,656372
0,909000	0,638123	4,370880
0,910000	0,634613	3,148346
0,911000	0,631866	4,200287
0,912000	0,643158	4,363708
0,913000	0,629120	4,999847
0,914000	0,651703	4,999847
0,915000	0,622101	4,999847
0,916000	0,657501	4,999847
0,917000	0,620422	4,999847
0,918000	0,666046	4,080353
0,919000	0,610199	3,600311
0,920000	0,658417	2,715302
0,921000	0,626831	4,400482
0,922000	0,653839	4,999847
0,923000	0,633850	4,999847
0,924000	0,640869	4,999847
0,925000	0,644989	4,999847
0,926000	0,640717	4,999847
0,927000	0,657654	4,999847
0,928000	0,635834	4,851990
0,929000	0,665741	4,233551
0,930000	0,629120	3,654785
0,931000	0,673676	3,495941
0,932000	0,627441	4,815369
0,933000	0,682526	4,999847
0,934000	0,632782	4,999847
0,935000	0,675201	4,999847
0,936000	0,641785	4,999847
0,937000	0,664062	4,999847
0,938000	0,646210	4,848480
0,939000	0,652924	3,867187
0,940000	0,660553	2,241669
0,941000	0,643616	4,272308
0,942000	0,667267	4,999847
0,943000	0,635986	4,999847
0,944000	0,677795	4,999847
0,945000	0,634918	4,999847
0,946000	0,691071	4,999847
0,947000	0,630646	4,999847
0,948000	0,696106	4,999847
0,949000	0,639801	4,994049
0,950000	0,683594	4,229584
0,951000	0,652161	2,825470
0,952000	0,671387	3,758545
0,953000	0,662537	4,999847
0,954000	0,660706	4,999847
0,955000	0,672607	4,999847
0,956000	0,645905	4,999847
0,957000	0,679779	4,999847
0,958000	0,591736	3,724213
0,959000	0,647125	2,681122
0,960000	0,596619	4,496765
0,961000	0,685577	2,667236
0,962000	0,612946	4,999847
0,963000	0,691681	4,999847
0,964000	0,630646	4,999847
0,965000	0,678864	4,999847
0,966000	0,651703	4,999847
0,967000	0,666046	4,999847
0,968000	0,662384	4,794464
0,969000	0,652924	4,377747
0,970000	0,679626	3,693695
0,971000	0,645599	3,372345
0,972000	0,595245	4,322052
0,973000	0,566254	4,999847
0,974000	0,559082	4,999847
0,975000	0,574493	4,999847
0,976000	0,661469	4,999847
0,977000	0,644531	4,999847
0,978000	0,673676	4,999847
0,979000	0,671082	4,144592
0,980000	0,662994	2,690277
0,981000	0,682373	3,579102
0,982000	0,653381	4,999847
0,983000	0,697327	4,999847
0,984000	0,639648	4,999847
0,985000	0,707245	4,999847
0,986000	0,633392	4,999847
0,987000	0,720215	4,999847
0,988000	0,636139	4,999847
0,989000	0,716553	4,272003
0,990000	0,658417	2,781830
0,991000	0,703278	4,504395
0,992000	0,672913	4,620819
0,993000	0,683441	4,999847
0,994000	0,686493	4,999847
0,995000	0,666656	4,999847
0,996000	0,697479	4,999847
0,997000	0,660553	4,999847
0,998000	0,715790	4,999847
0,999000	0,653229	3,274536

