LabVIEW Measurement	
Writer_Version	2
Reader_Version	2
Separator	Tab
Decimal_Separator	,
Multi_Headings	Yes
X_Columns	One
Time_Pref	Absolute
Operator	d.nicolai
Date	2023/11/09
Time	16:04:05,6565121999996605588
***End_of_Header***	
	
Channels	2		
Samples	1000	1000	
Date	2023/11/09	2023/11/09	
Time	16:04:22,6765137999996502021	16:04:22,6765137999996502021	
Y_Unit_Label	Volts	Volts	
X_Dimension	Time	Time	
X0	0,0000000000000000E+0	0,0000000000000000E+0	
Delta_X	0,001000	0,001000	
***End_of_Header***			
X_Value	powebox	triggerbox	Comment
0,000000	0,519867	0,900726
0,001000	0,518494	4,454346
0,002000	0,522919	4,638672
0,003000	0,520630	4,999847
0,004000	0,517273	4,999847
0,005000	0,520477	4,999847
0,006000	0,534973	4,999847
0,007000	0,534668	4,999847
0,008000	0,537262	4,263763
0,009000	0,536041	4,572754
0,010000	0,537262	1,861877
0,011000	0,537720	4,999847
0,012000	0,535889	3,985596
0,013000	0,537567	4,999847
0,014000	0,534821	4,999847
0,015000	0,537262	4,999847
0,016000	0,535889	4,999847
0,017000	0,534515	4,999847
0,018000	0,531464	4,100800
0,019000	0,530701	3,760071
0,020000	0,530090	4,999847
0,021000	0,525818	4,007721
0,022000	0,527802	4,969177
0,023000	0,528717	4,999847
0,024000	0,531616	4,999847
0,025000	0,534821	4,999847
0,026000	0,535889	4,999847
0,027000	0,536957	4,999847
0,028000	0,528259	4,999847
0,029000	0,532990	4,136658
0,030000	0,534515	4,560547
0,031000	0,537872	4,044037
0,032000	0,534973	4,999847
0,033000	0,536957	4,999847
0,034000	0,485535	4,999847
0,035000	0,513916	4,999847
0,036000	0,523224	4,999847
0,037000	0,531006	4,807587
0,038000	0,530548	4,923706
0,039000	0,533447	3,706512
0,040000	0,535889	3,638153
0,041000	0,532532	4,158630
0,042000	0,534210	4,253845
0,043000	0,532837	4,999847
0,044000	0,541229	4,999847
0,045000	0,533447	4,999847
0,046000	0,544434	4,999847
0,047000	0,531921	4,999847
0,048000	0,544434	4,681091
0,049000	0,533142	4,588013
0,050000	0,542297	2,611389
0,051000	0,536652	4,829865
0,052000	0,541687	3,842926
0,053000	0,543671	4,999847
0,054000	0,542908	4,999847
0,055000	0,548248	4,999847
0,056000	0,542450	4,999847
0,057000	0,552063	4,999847
0,058000	0,538788	3,932648
0,059000	0,553894	3,227692
0,060000	0,539246	3,067017
0,061000	0,558624	4,486084
0,062000	0,540924	4,999847
0,063000	0,558167	4,999847
0,064000	0,545959	4,999847
0,065000	0,556488	4,999847
0,066000	0,550842	4,999847
0,067000	0,553589	4,999847
0,068000	0,556488	4,999847
0,069000	0,550690	3,886871
0,070000	0,560303	3,164520
0,071000	0,550842	4,999847
0,072000	0,566406	3,904419
0,073000	0,550537	4,999847
0,074000	0,571899	4,999847
0,075000	0,549469	4,999847
0,076000	0,575562	4,999847
0,077000	0,553131	4,999847
0,078000	0,572510	4,999847
0,079000	0,557709	2,695465
0,080000	0,567780	3,946381
0,081000	0,564117	4,296112
0,082000	0,563354	4,999847
0,083000	0,568542	4,999847
0,084000	0,559235	4,999847
0,085000	0,573578	4,999847
0,086000	0,555115	4,999847
0,087000	0,579376	4,999847
0,088000	0,551453	4,999847
0,089000	0,585175	3,341217
0,090000	0,550385	4,548950
0,091000	0,586243	3,797302
0,092000	0,560150	4,259033
0,093000	0,581970	4,999847
0,094000	0,567932	4,999847
0,095000	0,577240	4,999847
0,096000	0,574799	4,999847
0,097000	0,572662	4,999847
0,098000	0,582581	4,999847
0,099000	0,567932	2,991791
0,100000	0,589752	3,885345
0,101000	0,562897	3,146210
0,102000	0,596161	4,999847
0,103000	0,561218	4,999847
0,104000	0,603333	4,999847
0,105000	0,556641	4,999847
0,106000	0,597534	4,999847
0,107000	0,569458	4,999847
0,108000	0,592499	4,999847
0,109000	0,579681	4,037018
0,110000	0,587006	4,333038
0,111000	0,589447	4,754486
0,112000	0,582428	4,299622
0,113000	0,597839	4,999847
0,114000	0,575409	4,999847
0,115000	0,604706	4,999847
0,116000	0,570679	4,999847
0,117000	0,612488	4,999847
0,118000	0,566254	4,206543
0,119000	0,618591	2,825623
0,120000	0,569763	4,875793
0,121000	0,608826	3,692474
0,122000	0,576019	4,783783
0,123000	0,595551	4,999847
0,124000	0,583038	4,999847
0,125000	0,590057	4,999847
0,126000	0,600281	4,999847
0,127000	0,586395	4,999847
0,128000	0,611115	4,999847
0,129000	0,583191	3,979950
0,130000	0,621490	2,861481
0,131000	0,579529	4,070892
0,132000	0,630341	4,700623
0,133000	0,572357	4,999847
0,134000	0,630493	4,999847
0,135000	0,585480	4,999847
0,136000	0,590820	4,999847
0,137000	0,554047	4,999847
0,138000	0,594330	4,999847
0,139000	0,600586	2,464142
0,140000	0,602417	2,155609
0,141000	0,618744	4,128418
0,142000	0,598297	4,946899
0,143000	0,630035	4,999847
0,144000	0,592499	4,999847
0,145000	0,639648	4,999847
0,146000	0,586243	4,999847
0,147000	0,648346	4,999847
0,148000	0,583801	4,999847
0,149000	0,642395	3,936310
0,150000	0,585022	2,396088
0,151000	0,626526	4,362335
0,152000	0,608521	3,697510
0,153000	0,621185	4,999847
0,154000	0,622864	4,999847
0,155000	0,612183	4,999847
0,156000	0,633850	4,999847
0,157000	0,603333	4,999847
0,158000	0,644684	4,592743
0,159000	0,595245	2,976074
0,160000	0,654907	3,625946
0,161000	0,585632	4,000092
0,162000	0,662689	4,708710
0,163000	0,591583	4,999847
0,164000	0,649719	4,999847
0,165000	0,604706	4,999847
0,166000	0,636597	4,999847
0,167000	0,622406	4,999847
0,168000	0,628815	4,999847
0,169000	0,637665	3,792572
0,170000	0,619965	3,085022
0,171000	0,651550	3,557739
0,172000	0,612640	4,507294
0,173000	0,664215	4,999847
0,174000	0,605316	4,999847
0,175000	0,675049	4,999847
0,176000	0,597534	4,999847
0,177000	0,678101	4,999847
0,178000	0,610657	4,040222
0,179000	0,663757	3,086090
0,180000	0,626831	2,872009
0,181000	0,649109	4,800415
0,182000	0,639648	4,597626
0,183000	0,637360	4,999847
0,184000	0,655212	4,999847
0,185000	0,628204	4,999847
0,186000	0,669098	4,999847
0,187000	0,618744	4,999847
0,188000	0,681610	4,999847
0,189000	0,611572	3,621674
0,190000	0,694122	2,498627
0,191000	0,607452	3,912811
0,192000	0,688782	4,380341
0,193000	0,625305	4,999847
0,194000	0,673218	4,999847
0,195000	0,642090	4,999847
0,196000	0,659790	4,999847
0,197000	0,658875	4,999847
0,198000	0,647430	4,855347
0,199000	0,674133	4,003296
0,200000	0,635681	3,153534
0,201000	0,686493	4,756012
0,202000	0,623932	4,999847
0,203000	0,699768	4,999847
0,204000	0,617065	4,999847
0,205000	0,712585	4,999847
0,206000	0,622253	4,999847
0,207000	0,699158	4,999847
0,208000	0,641785	4,999847
0,209000	0,682526	3,630676
0,210000	0,657806	3,168182
0,211000	0,666656	3,506165
0,212000	0,674744	4,270172
0,213000	0,653687	4,704285
0,214000	0,691071	4,999847
0,215000	0,632935	4,999847
0,216000	0,701904	4,999847
0,217000	0,629425	4,999847
0,218000	0,718384	4,241791
0,219000	0,621338	3,382721
0,220000	0,725708	2,539520
0,221000	0,635529	4,442444
0,222000	0,707397	4,999847
0,223000	0,657043	4,999847
0,224000	0,690155	4,999847
0,225000	0,676117	4,999847
0,226000	0,675812	4,999847
0,227000	0,695038	4,999847
0,228000	0,662384	4,879761
0,229000	0,711365	4,454651
0,230000	0,650482	4,223022
0,231000	0,726471	4,080048
0,232000	0,640259	4,120178
0,233000	0,741272	4,999847
0,234000	0,634155	4,999847
0,235000	0,738983	4,999847
0,236000	0,657959	4,999847
0,237000	0,720978	4,999847
0,238000	0,669861	4,792786
0,239000	0,677795	4,287567
0,240000	0,688019	3,372498
0,241000	0,684204	4,206085
0,242000	0,716095	4,999847
0,243000	0,675049	4,999847
0,244000	0,735168	4,999847
0,245000	0,664215	4,999847
0,246000	0,751495	4,999847
0,247000	0,637512	4,999847
0,248000	0,743256	4,852448
0,249000	0,637512	4,899902
0,250000	0,729675	4,034882
0,251000	0,659790	4,271545
0,252000	0,711212	4,760742
0,253000	0,681000	4,999847
0,254000	0,694733	4,999847
0,255000	0,700684	4,999847
0,256000	0,680237	4,999847
0,257000	0,718231	4,999847
0,258000	0,666962	4,970551
0,259000	0,734558	3,384094
0,260000	0,655365	4,321442
0,261000	0,749969	4,358673
0,262000	0,645599	4,999847
0,263000	0,762329	4,999847
0,264000	0,660553	4,999847
0,265000	0,743103	4,999847
0,266000	0,684052	4,999847
0,267000	0,708160	4,999847
0,268000	0,696564	4,929962
0,269000	0,704346	4,676056
0,270000	0,723114	3,090668
0,271000	0,693512	3,411560
0,272000	0,742493	4,244537
0,273000	0,682526	4,999847
0,274000	0,759888	4,999847
0,275000	0,671234	4,999847
0,276000	0,774994	4,999847
0,277000	0,662842	4,999847
0,278000	0,777740	4,578400
0,279000	0,687561	2,931366
0,280000	0,758057	3,086395
0,281000	0,710602	4,803314
0,282000	0,739899	4,999847
0,283000	0,731812	4,999847
0,284000	0,724487	4,999847
0,285000	0,751648	4,999847
0,286000	0,711212	4,999847
0,287000	0,769806	4,999847
0,288000	0,699310	4,999847
0,289000	0,785980	4,863586
0,290000	0,688934	3,150635
0,291000	0,800934	3,883209
0,292000	0,690460	4,141083
0,293000	0,792694	4,999847
0,294000	0,714417	4,999847
0,295000	0,772858	4,999847
0,296000	0,737000	4,999847
0,297000	0,755005	4,999847
0,298000	0,758209	4,999847
0,299000	0,741882	3,024139
0,300000	0,777435	3,621368
0,301000	0,728912	4,999847
0,302000	0,794678	4,999847
0,303000	0,716705	4,999847
0,304000	0,810699	4,999847
0,305000	0,707092	4,999847
0,306000	0,825653	4,999847
0,307000	0,719757	4,999847
0,308000	0,811920	4,999847
0,309000	0,744476	4,532928
0,310000	0,793610	2,456665
0,311000	0,766296	4,153595
0,312000	0,777283	4,347382
0,313000	0,786743	4,999847
0,314000	0,762787	4,999847
0,315000	0,804901	4,999847
0,316000	0,748749	4,999847
0,317000	0,822296	4,999847
0,318000	0,737762	4,999847
0,319000	0,839844	3,622131
0,320000	0,727539	3,145142
0,321000	0,851440	4,542694
0,322000	0,751038	4,999847
0,323000	0,832672	4,999847
0,324000	0,774689	4,999847
0,325000	0,816193	4,999847
0,326000	0,796509	4,999847
0,327000	0,800476	4,999847
0,328000	0,818024	4,999847
0,329000	0,774536	4,091797
0,330000	0,823364	1,785431
0,331000	0,759888	4,020233
0,332000	0,840454	4,184265
0,333000	0,747986	4,999847
0,334000	0,856476	4,999847
0,335000	0,746002	4,999847
0,336000	0,858002	4,999847
0,337000	0,769653	4,999847
0,338000	0,838013	4,999847
0,339000	0,790558	3,689575
0,340000	0,819855	3,355408
0,341000	0,783386	4,999847
0,342000	0,764313	4,262848
0,343000	0,806427	4,999847
0,344000	0,777435	4,999847
0,345000	0,842743	4,999847
0,346000	0,771179	4,999847
0,347000	0,863190	4,999847
0,348000	0,760345	4,990540
0,349000	0,876312	3,345490
0,350000	0,769043	2,699280
0,351000	0,865784	4,533081
0,352000	0,791626	4,191742
0,353000	0,845337	4,999847
0,354000	0,812378	4,999847
0,355000	0,827789	4,999847
0,356000	0,832520	4,999847
0,357000	0,810089	4,999847
0,358000	0,850830	4,999847
0,359000	0,794678	2,409058
0,360000	0,867004	2,927856
0,361000	0,779877	4,592438
0,362000	0,878906	4,999847
0,363000	0,766296	4,999847
0,364000	0,882416	4,999847
0,365000	0,785217	4,999847
0,366000	0,862579	4,999847
0,367000	0,806732	4,999847
0,368000	0,843048	4,999847
0,369000	0,816345	3,548431
0,370000	0,810699	3,736572
0,371000	0,831909	3,763580
0,372000	0,794373	4,170837
0,373000	0,848846	4,999847
0,374000	0,778809	4,999847
0,375000	0,699158	4,999847
0,376000	0,662537	4,999847
0,377000	0,645599	4,999847
0,378000	0,638275	4,583893
0,379000	0,634613	3,464661
0,380000	0,633240	3,856354
0,381000	0,632019	4,576111
0,382000	0,631866	4,999847
0,383000	0,631409	4,999847
0,384000	0,631409	4,999847
0,385000	0,631256	4,999847
0,386000	0,631256	4,999847
0,387000	0,631256	4,999847
0,388000	0,630798	4,952850
0,389000	0,630951	4,261780
0,390000	0,630951	2,735138
0,391000	0,631256	4,441986
0,392000	0,631256	4,319153
0,393000	0,631256	4,999847
0,394000	0,631104	4,999847
0,395000	0,631561	4,999847
0,396000	0,631104	4,999847
0,397000	0,631104	4,999847
0,398000	0,631409	4,521179
0,399000	0,558014	2,915497
0,400000	0,517883	3,072815
0,401000	0,498352	4,565582
0,402000	0,494690	4,999847
0,403000	0,490723	4,999847
0,404000	0,489655	4,999847
0,405000	0,486755	4,999847
0,406000	0,488434	4,999847
0,407000	0,489807	4,999847
0,408000	0,490723	4,999847
0,409000	0,489655	3,461914
0,410000	0,489502	3,765411
0,411000	0,491943	4,548187
0,412000	0,491028	4,548492
0,413000	0,492706	4,999847
0,414000	0,488129	4,999847
0,415000	0,490570	4,999847
0,416000	0,491638	4,999847
0,417000	0,494843	4,999847
0,418000	0,492401	4,278259
0,419000	0,493011	3,102722
0,420000	0,484467	3,263855
0,421000	0,486603	4,021454
0,422000	0,487976	4,999847
0,423000	0,485992	4,999847
0,424000	0,480347	4,999847
0,425000	0,477753	4,999847
0,426000	0,478821	4,999847
0,427000	0,479736	4,999847
0,428000	0,477600	4,999847
0,429000	0,477905	4,359589
0,430000	0,483551	4,806061
0,431000	0,484314	3,324127
0,432000	0,486298	4,292145
0,433000	0,479126	4,999847
0,434000	0,472717	4,999847
0,435000	0,473175	4,999847
0,436000	0,469360	4,999847
0,437000	0,477295	4,999847
0,438000	0,484924	4,550781
0,439000	0,484619	2,807007
0,440000	0,485840	3,908844
0,441000	0,488129	4,551392
0,442000	0,488739	4,999847
0,443000	0,470123	4,999847
0,444000	0,470428	4,999847
0,445000	0,482635	4,999847
0,446000	0,487061	4,999847
0,447000	0,488892	4,999847
0,448000	0,491486	4,999847
0,449000	0,490570	3,688354
0,450000	0,493011	4,752197
0,451000	0,494537	3,598938
0,452000	0,494995	4,443665
0,453000	0,496216	4,999847
0,454000	0,497437	4,999847
0,455000	0,498199	4,999847
0,456000	0,498199	4,999847
0,457000	0,499573	4,999847
0,458000	0,497589	4,532776
0,459000	0,500336	3,127441
0,460000	0,498962	3,799744
0,461000	0,501709	4,528809
0,462000	0,496368	4,999847
0,463000	0,499420	4,999847
0,464000	0,499573	4,999847
0,465000	0,500946	4,999847
0,466000	0,501709	4,999847
0,467000	0,502930	4,999847
0,468000	0,504456	4,999847
0,469000	0,503387	4,471436
0,470000	0,506287	4,999847
0,471000	0,504150	4,263306
0,472000	0,508423	4,999847
0,473000	0,505219	4,999847
0,474000	0,510559	4,999847
0,475000	0,503082	4,999847
0,476000	0,510712	4,999847
0,477000	0,506287	4,999847
0,478000	0,511017	4,391022
0,479000	0,508881	3,230133
0,480000	0,511017	3,405914
0,481000	0,511475	4,997864
0,482000	0,510559	4,980469
0,483000	0,513763	4,999847
0,484000	0,508118	4,999847
0,485000	0,514832	4,999847
0,486000	0,505371	4,999847
0,487000	0,517120	4,999847
0,488000	0,507812	4,648285
0,489000	0,522003	3,600464
0,490000	0,507965	3,450165
0,491000	0,520630	3,556366
0,492000	0,512238	4,774475
0,493000	0,518646	4,999847
0,494000	0,514679	4,999847
0,495000	0,517426	4,999847
0,496000	0,519714	4,999847
0,497000	0,516510	4,999847
0,498000	0,524292	4,068146
0,499000	0,515747	3,361359
0,500000	0,528259	3,092957
0,501000	0,512543	4,999847
0,502000	0,531769	4,999847
0,503000	0,512695	4,999847
0,504000	0,534668	4,999847
0,505000	0,516205	4,999847
0,506000	0,532532	4,999847
0,507000	0,522156	4,999847
0,508000	0,529633	4,781189
0,509000	0,526581	4,209747
0,510000	0,526428	2,426147
0,511000	0,531311	2,727203
0,512000	0,524139	4,283752
0,513000	0,537262	4,999847
0,514000	0,522614	4,999847
0,515000	0,542450	4,999847
0,516000	0,520935	4,999847
0,517000	0,547638	4,999847
0,518000	0,516205	4,257202
0,519000	0,546875	3,487396
0,520000	0,525208	2,286072
0,521000	0,542450	4,641724
0,522000	0,529785	4,999847
0,523000	0,537720	4,999847
0,524000	0,537262	4,999847
0,525000	0,533295	4,999847
0,526000	0,543976	4,999847
0,527000	0,531616	4,999847
0,528000	0,551453	4,626617
0,529000	0,527039	4,160004
0,530000	0,554962	3,259125
0,531000	0,523682	3,871460
0,532000	0,561523	4,793701
0,533000	0,525665	4,999847
0,534000	0,558472	4,999847
0,535000	0,534973	4,999847
0,536000	0,553284	4,999847
0,537000	0,543060	4,999847
0,538000	0,548401	4,242554
0,539000	0,550995	3,356018
0,540000	0,540771	2,692719
0,541000	0,555878	4,713440
0,542000	0,536499	4,999847
0,543000	0,563507	4,999847
0,544000	0,534058	4,999847
0,545000	0,571747	4,999847
0,546000	0,500946	4,999847
0,547000	0,563049	4,999847
0,548000	0,531311	4,999847
0,549000	0,567780	3,979187
0,550000	0,548553	3,089905
0,551000	0,564880	4,094543
0,552000	0,558472	4,999847
0,553000	0,560455	4,999847
0,554000	0,567780	4,999847
0,555000	0,554657	4,999847
0,556000	0,574799	4,999847
0,557000	0,549469	4,999847
0,558000	0,582733	4,226227
0,559000	0,543518	2,681885
0,560000	0,589447	3,830566
0,561000	0,537567	4,227600
0,562000	0,588379	4,999847
0,563000	0,549622	4,999847
0,564000	0,580139	4,999847
0,565000	0,558624	4,999847
0,566000	0,573578	4,999847
0,567000	0,571442	4,999847
0,568000	0,567780	4,999847
0,569000	0,581055	4,146118
0,570000	0,561523	1,990814
0,571000	0,590363	4,788818
0,572000	0,556183	3,733063
0,573000	0,598602	4,999847
0,574000	0,552368	4,999847
0,575000	0,607147	4,999847
0,576000	0,549927	4,999847
0,577000	0,600433	4,999847
0,578000	0,561829	4,183502
0,579000	0,590057	2,748871
0,580000	0,573120	3,354492
0,581000	0,582275	4,999847
0,582000	0,585022	4,999847
0,583000	0,575562	4,999847
0,584000	0,596924	4,999847
0,585000	0,568848	4,999847
0,586000	0,605927	4,999847
0,587000	0,562592	4,999847
0,588000	0,615234	4,999847
0,589000	0,556488	4,243927
0,590000	0,622253	4,322205
0,591000	0,561218	4,342194
0,592000	0,610504	4,310150
0,593000	0,574799	4,999847
0,594000	0,599670	4,999847
0,595000	0,586395	4,999847
0,596000	0,588989	4,999847
0,597000	0,598450	4,999847
0,598000	0,578766	4,999847
0,599000	0,608368	3,151703
0,600000	0,571899	3,035126
0,601000	0,620422	4,651337
0,602000	0,566101	4,999847
0,603000	0,630798	4,999847
0,604000	0,557098	4,999847
0,605000	0,630951	4,999847
0,606000	0,572815	4,999847
0,607000	0,619354	4,887238
0,608000	0,587769	4,999847
0,609000	0,606842	3,641052
0,610000	0,599823	3,744507
0,611000	0,596161	4,154968
0,612000	0,612793	4,279633
0,613000	0,586700	4,999847
0,614000	0,625916	4,999847
0,615000	0,577393	4,999847
0,616000	0,635986	4,999847
0,617000	0,568542	4,999847
0,618000	0,646667	4,999847
0,619000	0,567169	3,223419
0,620000	0,641022	2,398682
0,621000	0,585175	4,449463
0,622000	0,627747	4,999847
0,623000	0,601654	4,999847
0,624000	0,615997	4,999847
0,625000	0,617218	4,999847
0,626000	0,603943	4,999847
0,627000	0,630035	4,999847
0,628000	0,594482	4,800415
0,629000	0,643616	3,614960
0,630000	0,585327	4,184113
0,631000	0,655365	4,579773
0,632000	0,576477	4,766693
0,633000	0,666199	4,999847
0,634000	0,582733	4,999847
0,635000	0,651398	4,999847
0,636000	0,602264	4,999847
0,637000	0,637512	4,999847
0,638000	0,618896	4,999847
0,639000	0,625305	2,739410
0,640000	0,635223	2,714386
0,641000	0,613403	4,999847
0,642000	0,649719	4,999847
0,643000	0,603485	4,999847
0,644000	0,664062	4,999847
0,645000	0,601501	4,999847
0,646000	0,685425	4,999847
0,647000	0,592346	4,999847
0,648000	0,659485	4,863281
0,649000	0,577240	2,828064
0,650000	0,658112	2,689514
0,651000	0,621033	4,687958
0,652000	0,653229	4,999847
0,653000	0,653839	4,999847
0,654000	0,652161	4,999847
0,655000	0,672760	4,999847
0,656000	0,640411	4,999847
0,657000	0,689240	4,742126
0,658000	0,629120	4,159393
0,659000	0,703278	3,178406
0,660000	0,618134	3,891602
0,661000	0,716553	4,989471
0,662000	0,614777	4,999847
0,663000	0,711975	4,999847
0,664000	0,637360	4,999847
0,665000	0,694733	4,999847
0,666000	0,657959	4,999847
0,667000	0,678406	4,999847
0,668000	0,676880	4,999847
0,669000	0,664368	3,602905
0,670000	0,694885	4,980469
0,671000	0,651703	3,520966
0,672000	0,711365	4,890900
0,673000	0,640259	4,999847
0,674000	0,725708	4,999847
0,675000	0,629578	4,999847
0,676000	0,739746	4,999847
0,677000	0,635223	4,999847
0,678000	0,724945	4,250336
0,679000	0,658569	2,582092
0,680000	0,707092	3,332062
0,681000	0,680237	4,683380
0,682000	0,690765	4,989014
0,683000	0,699921	4,999847
0,684000	0,677032	4,999847
0,685000	0,717926	4,999847
0,686000	0,664825	4,999847
0,687000	0,734863	4,999847
0,688000	0,653076	4,999847
0,689000	0,749969	3,172607
0,690000	0,642853	3,153229
0,691000	0,759125	3,230438
0,692000	0,660400	4,999847
0,693000	0,739594	4,999847
0,694000	0,683746	4,999847
0,695000	0,721741	4,999847
0,696000	0,705566	4,999847
0,697000	0,706024	4,999847
0,698000	0,725403	3,966675
0,699000	0,692139	3,088531
0,700000	0,743408	4,082642
0,701000	0,679474	4,999847
0,702000	0,760345	4,999847
0,703000	0,668488	4,999847
0,704000	0,775604	4,999847
0,705000	0,661621	4,999847
0,706000	0,774689	4,999847
0,707000	0,687256	4,999847
0,708000	0,754700	4,922180
0,709000	0,710602	4,070435
0,710000	0,737457	3,587189
0,711000	0,731964	2,994995
0,712000	0,722504	4,999847
0,713000	0,751953	4,999847
0,714000	0,708771	4,999847
0,715000	0,769501	4,999847
0,716000	0,696411	4,999847
0,717000	0,786285	4,999847
0,718000	0,685730	4,169617
0,719000	0,801544	3,413086
0,720000	0,690460	4,696960
0,721000	0,790253	4,999847
0,722000	0,715179	4,999847
0,723000	0,771179	4,999847
0,724000	0,738525	4,999847
0,725000	0,754242	4,999847
0,726000	0,759430	4,999847
0,727000	0,739594	4,999847
0,728000	0,778809	4,999847
0,729000	0,726166	3,159637
0,730000	0,796509	3,251953
0,731000	0,715027	3,576508
0,732000	0,812225	4,999847
0,733000	0,704346	4,999847
0,734000	0,826111	4,999847
0,735000	0,719604	4,999847
0,736000	0,771942	4,999847
0,737000	0,712433	4,999847
0,738000	0,754547	4,076233
0,739000	0,733643	2,765961
0,740000	0,738678	2,822113
0,741000	0,751801	4,999847
0,742000	0,723114	4,999847
0,743000	0,768890	4,999847
0,744000	0,710297	4,999847
0,745000	0,784760	4,999847
0,746000	0,699310	4,999847
0,747000	0,800018	4,999847
0,748000	0,690460	4,459076
0,749000	0,805511	4,061584
0,750000	0,705261	4,894104
0,751000	0,747833	2,896271
0,752000	0,695801	4,999847
0,753000	0,747070	4,999847
0,754000	0,746918	4,999847
0,755000	0,748901	4,999847
0,756000	0,772858	4,999847
0,757000	0,739441	4,932556
0,758000	0,792694	4,633484
0,759000	0,728455	3,345490
0,760000	0,809937	3,455200
0,761000	0,717621	4,999847
0,762000	0,826263	4,999847
0,763000	0,719147	4,999847
0,764000	0,824585	4,999847
0,765000	0,742340	4,999847
0,766000	0,806122	4,999847
0,767000	0,763855	4,999847
0,768000	0,789337	4,999847
0,769000	0,783691	3,872375
0,770000	0,773926	4,999847
0,771000	0,802765	4,026031
0,772000	0,759125	4,999847
0,773000	0,819855	4,999847
0,774000	0,746002	4,999847
0,775000	0,836487	4,999847
0,776000	0,733948	4,999847
0,777000	0,849762	4,999847
0,778000	0,745239	4,674530
0,779000	0,836945	3,123169
0,780000	0,767975	4,023437
0,781000	0,818024	4,999847
0,782000	0,788269	4,999847
0,783000	0,801239	4,999847
0,784000	0,807343	4,999847
0,785000	0,785370	4,999847
0,786000	0,825653	4,999847
0,787000	0,769653	4,999847
0,788000	0,842133	4,999847
0,789000	0,756531	3,757935
0,790000	0,856628	3,913879
0,791000	0,743866	4,147644
0,792000	0,861206	4,999847
0,793000	0,765228	4,999847
0,794000	0,841064	4,999847
0,795000	0,787048	4,999847
0,796000	0,822296	4,999847
0,797000	0,807190	4,999847
0,798000	0,805511	3,819427
0,799000	0,826721	3,035889
0,800000	0,790253	2,564392
0,801000	0,843964	4,572144
0,802000	0,774841	4,999847
0,803000	0,858307	4,999847
0,804000	0,762024	4,999847
0,805000	0,867462	4,999847
0,806000	0,759735	4,999847
0,807000	0,863037	4,999847
0,808000	0,782318	4,999847
0,809000	0,840759	3,930054
0,810000	0,803833	4,327240
0,811000	0,822754	4,319305
0,812000	0,721283	4,999847
0,813000	0,673523	4,999847
0,814000	0,651703	4,999847
0,815000	0,641632	4,999847
0,816000	0,636749	4,999847
0,817000	0,634918	4,999847
0,818000	0,634003	4,800568
0,819000	0,633087	3,224640
0,820000	0,632782	3,348083
0,821000	0,632172	4,428864
0,822000	0,632324	4,999847
0,823000	0,632324	4,999847
0,824000	0,632477	4,999847
0,825000	0,632172	4,999847
0,826000	0,631866	4,999847
0,827000	0,632172	4,999847
0,828000	0,632019	4,999847
0,829000	0,632019	3,604584
0,830000	0,631714	4,068604
0,831000	0,631561	4,381104
0,832000	0,631714	4,999847
0,833000	0,631866	4,999847
0,834000	0,631561	4,999847
0,835000	0,631409	4,999847
0,836000	0,549316	4,999847
0,837000	0,513153	4,997711
0,838000	0,494995	4,886932
0,839000	0,488586	3,254852
0,840000	0,482941	2,803040
0,841000	0,482483	4,999847
0,842000	0,481873	4,999847
0,843000	0,482178	4,999847
0,844000	0,482025	4,999847
0,845000	0,481720	4,999847
0,846000	0,482635	4,999847
0,847000	0,481720	4,789429
0,848000	0,481720	4,999847
0,849000	0,481415	4,208221
0,850000	0,482635	3,674316
0,851000	0,480957	4,301605
0,852000	0,479584	4,999847
0,853000	0,444031	4,999847
0,854000	0,456543	4,999847
0,855000	0,467987	4,999847
0,856000	0,475311	4,999847
0,857000	0,477295	4,788361
0,858000	0,478363	4,042053
0,859000	0,478516	3,039398
0,860000	0,478821	3,486786
0,861000	0,479736	4,999847
0,862000	0,479736	4,999847
0,863000	0,481720	4,999847
0,864000	0,481415	4,999847
0,865000	0,483093	4,999847
0,866000	0,481873	4,999847
0,867000	0,483704	4,999847
0,868000	0,482635	4,999847
0,869000	0,484314	3,516998
0,870000	0,484009	4,143219
0,871000	0,483398	3,906097
0,872000	0,483856	4,999847
0,873000	0,484314	4,999847
0,874000	0,483704	4,999847
0,875000	0,486145	4,999847
0,876000	0,507355	4,999847
0,877000	0,507507	4,999847
0,878000	0,507812	4,712524
0,879000	0,507965	3,004913
0,880000	0,507660	2,084961
0,881000	0,507507	4,534760
0,882000	0,507202	4,999847
0,883000	0,507812	4,999847
0,884000	0,504456	4,999847
0,885000	0,505524	4,999847
0,886000	0,506744	4,999847
0,887000	0,508270	4,825287
0,888000	0,509033	4,680328
0,889000	0,508270	3,635712
0,890000	0,509033	4,999847
0,891000	0,507660	3,625793
0,892000	0,510254	4,999847
0,893000	0,508270	4,999847
0,894000	0,511627	4,999847
0,895000	0,508118	4,999847
0,896000	0,513000	4,999847
0,897000	0,509033	4,999847
0,898000	0,512695	4,122772
0,899000	0,510864	2,926941
0,900000	0,513611	3,246460
0,901000	0,512238	4,999847
0,902000	0,512848	4,999847
0,903000	0,513458	4,999847
0,904000	0,509186	4,999847
0,905000	0,508728	4,999847
0,906000	0,507355	4,999847
0,907000	0,516205	4,999847
0,908000	0,509796	4,812012
0,909000	0,519714	3,608093
0,910000	0,503845	4,032745
0,911000	0,518341	3,305206
0,912000	0,509949	4,999847
0,913000	0,518646	4,999847
0,914000	0,514832	4,999847
0,915000	0,518341	4,999847
0,916000	0,518341	4,999847
0,917000	0,517120	4,999847
0,918000	0,521240	3,912048
0,919000	0,515594	2,439270
0,920000	0,524445	3,586884
0,921000	0,514832	4,999847
0,922000	0,528412	4,999847
0,923000	0,516510	4,999847
0,924000	0,533600	4,999847
0,925000	0,518646	4,999847
0,926000	0,534210	4,999847
0,927000	0,524139	4,999847
0,928000	0,532990	4,834900
0,929000	0,529022	3,376312
0,930000	0,532074	4,373322
0,931000	0,534363	3,231506
0,932000	0,531769	4,663544
0,933000	0,538330	4,999847
0,934000	0,529175	4,999847
0,935000	0,542145	4,999847
0,936000	0,528259	4,999847
0,937000	0,546875	4,693451
0,938000	0,527039	4,999847
0,939000	0,550690	2,839050
0,940000	0,529633	3,627625
0,941000	0,547638	4,989014
0,942000	0,535736	4,999847
0,943000	0,545197	4,999847
0,944000	0,541077	4,999847
0,945000	0,542755	4,999847
0,946000	0,547028	4,999847
0,947000	0,540161	4,999847
0,948000	0,551453	4,999847
0,949000	0,537262	3,321075
0,950000	0,557098	3,945923
0,951000	0,535431	4,074249
0,952000	0,562744	4,999847
0,953000	0,534210	4,999847
0,954000	0,563965	4,999847
0,955000	0,520325	4,999847
0,956000	0,514832	4,999847
0,957000	0,527496	4,999847
0,958000	0,547791	4,433289
0,959000	0,550690	2,382202
0,960000	0,552673	3,806305
0,961000	0,561676	4,999847
0,962000	0,551453	4,999847
0,963000	0,569000	4,999847
0,964000	0,549774	4,999847
0,965000	0,575562	4,999847
0,966000	0,547485	4,999847
0,967000	0,581360	4,999847
0,968000	0,547028	4,999847
0,969000	0,578766	3,149414
0,970000	0,553741	4,922638
0,971000	0,572662	3,765564
0,972000	0,561371	4,999847
0,973000	0,567322	4,999847
0,974000	0,568695	4,999847
0,975000	0,562286	4,999847
0,976000	0,575562	4,999847
0,977000	0,556793	4,999847
0,978000	0,582428	4,222260
0,979000	0,555878	2,816925
0,980000	0,590363	3,857117
0,981000	0,551758	4,496765
0,982000	0,596313	4,999847
0,983000	0,555878	4,999847
0,984000	0,589905	4,999847
0,985000	0,564117	4,999847
0,986000	0,582733	4,999847
0,987000	0,573273	4,999847
0,988000	0,576782	4,538879
0,989000	0,582886	3,345184
0,990000	0,571899	4,999847
0,991000	0,591278	3,647614
0,992000	0,567169	4,999847
0,993000	0,599976	4,999847
0,994000	0,562286	4,999847
0,995000	0,606842	4,999847
0,996000	0,558472	4,999847
0,997000	0,609741	4,739075
0,998000	0,567780	4,436035
0,999000	0,596771	2,892761

