LabVIEW Measurement	
Writer_Version	2
Reader_Version	2
Separator	Tab
Decimal_Separator	,
Multi_Headings	Yes
X_Columns	One
Time_Pref	Absolute
Operator	d.nicolai
Date	2023/11/09
Time	16:04:05,6565121999996605588
***End_of_Header***	
	
Channels	2		
Samples	1000	1000	
Date	2023/11/09	2023/11/09	
Time	16:04:07,7825126999995953165	16:04:07,7825126999995953165	
Y_Unit_Label	Volts	Volts	
X_Dimension	Time	Time	
X0	0,0000000000000000E+0	0,0000000000000000E+0	
Delta_X	0,001000	0,001000	
***End_of_Header***			
X_Value	powebox	triggerbox	Comment
0,000000	0,540771	1,125488
0,001000	0,541534	4,761963
0,002000	0,541534	4,057159
0,003000	0,545197	4,999847
0,004000	0,545197	4,999847
0,005000	0,546112	4,999847
0,006000	0,544281	4,999847
0,007000	0,549469	4,999847
0,008000	0,546417	4,999847
0,009000	0,542755	3,681793
0,010000	0,540619	2,506561
0,011000	0,539398	3,381958
0,012000	0,529175	3,725281
0,013000	0,529175	4,425354
0,014000	0,529327	4,999847
0,015000	0,531311	4,999847
0,016000	0,532837	4,999847
0,017000	0,535736	4,999847
0,018000	0,532684	4,811859
0,019000	0,533905	3,225555
0,020000	0,538330	2,327423
0,021000	0,541840	4,999847
0,022000	0,546570	4,353333
0,023000	0,551453	4,999847
0,024000	0,549316	4,999847
0,025000	0,549622	4,999847
0,026000	0,555115	4,999847
0,027000	0,550232	4,999847
0,028000	0,553284	4,995270
0,029000	0,557709	3,825836
0,030000	0,559998	2,516327
0,031000	0,559845	4,550323
0,032000	0,560608	4,766083
0,033000	0,561066	4,999847
0,034000	0,559845	4,999847
0,035000	0,561981	4,999847
0,036000	0,558929	4,999847
0,037000	0,562286	4,999847
0,038000	0,568695	4,999847
0,039000	0,567474	3,190155
0,040000	0,564880	2,186737
0,041000	0,566101	4,892273
0,042000	0,561981	4,512482
0,043000	0,564117	4,999847
0,044000	0,564880	4,999847
0,045000	0,564575	4,999847
0,046000	0,563202	4,999847
0,047000	0,561981	4,999847
0,048000	0,560150	4,999847
0,049000	0,556335	3,593140
0,050000	0,559540	4,647217
0,051000	0,560455	3,442230
0,052000	0,560913	3,678284
0,053000	0,557556	4,999847
0,054000	0,557861	4,999847
0,055000	0,558167	4,999847
0,056000	0,561066	4,999847
0,057000	0,565338	4,999847
0,058000	0,569000	4,999847
0,059000	0,567932	3,247375
0,060000	0,568237	4,545593
0,061000	0,566254	3,903198
0,062000	0,565033	4,487000
0,063000	0,560150	4,999847
0,064000	0,557556	4,999847
0,065000	0,558624	4,999847
0,066000	0,559387	4,999847
0,067000	0,559692	4,999847
0,068000	0,556641	4,999847
0,069000	0,555573	3,809814
0,070000	0,549316	4,270630
0,071000	0,544434	3,461456
0,072000	0,545807	4,478760
0,073000	0,544891	4,999847
0,074000	0,547791	4,999847
0,075000	0,548248	4,999847
0,076000	0,552979	4,999847
0,077000	0,557404	4,999847
0,078000	0,560303	4,856567
0,079000	0,538635	3,008423
0,080000	0,539856	3,990021
0,081000	0,550995	4,882355
0,082000	0,553741	4,369659
0,083000	0,559692	4,999847
0,084000	0,555878	4,999847
0,085000	0,556183	4,999847
0,086000	0,544281	4,999847
0,087000	0,547485	4,999847
0,088000	0,537262	4,999847
0,089000	0,542450	4,580383
0,090000	0,544128	4,176331
0,091000	0,544586	3,703766
0,092000	0,546722	4,999847
0,093000	0,542755	4,999847
0,094000	0,551300	4,999847
0,095000	0,545959	4,999847
0,096000	0,556030	4,999847
0,097000	0,548553	4,999847
0,098000	0,560455	4,892883
0,099000	0,548706	2,781982
0,100000	0,561066	1,492920
0,101000	0,551453	4,140015
0,102000	0,561066	4,999847
0,103000	0,558014	4,999847
0,104000	0,562592	4,999847
0,105000	0,565338	4,999847
0,106000	0,564423	4,999847
0,107000	0,568695	4,999847
0,108000	0,559540	4,999847
0,109000	0,568237	4,116821
0,110000	0,561676	4,999847
0,111000	0,574799	2,997284
0,112000	0,565338	3,184509
0,113000	0,580292	4,999847
0,114000	0,570374	4,999847
0,115000	0,581665	4,999847
0,116000	0,577545	4,999847
0,117000	0,586395	4,999847
0,118000	0,583496	4,054413
0,119000	0,585937	3,674011
0,120000	0,585632	1,696014
0,121000	0,581207	4,690094
0,122000	0,586700	4,999847
0,123000	0,577393	4,999847
0,124000	0,590057	4,999847
0,125000	0,579071	4,999847
0,126000	0,594482	4,999847
0,127000	0,578003	4,999847
0,128000	0,597076	4,287109
0,129000	0,582123	4,327087
0,130000	0,596466	4,999847
0,131000	0,585327	3,091736
0,132000	0,593414	4,426422
0,133000	0,586243	4,999847
0,134000	0,585175	4,999847
0,135000	0,589294	4,999847
0,136000	0,581512	4,999847
0,137000	0,592499	4,999847
0,138000	0,578156	4,184875
0,139000	0,598450	3,180237
0,140000	0,573730	2,035980
0,141000	0,602722	4,686279
0,142000	0,574951	4,999847
0,143000	0,604553	4,999847
0,144000	0,584106	4,999847
0,145000	0,602264	4,999847
0,146000	0,591431	4,999847
0,147000	0,598755	4,999847
0,148000	0,596161	4,999847
0,149000	0,590057	4,172363
0,150000	0,597992	3,871155
0,151000	0,581970	3,170471
0,152000	0,604095	4,999847
0,153000	0,582581	4,999847
0,154000	0,613098	4,999847
0,155000	0,576935	4,999847
0,156000	0,617218	4,999847
0,157000	0,577850	4,999847
0,158000	0,613403	3,758545
0,159000	0,593719	3,501282
0,160000	0,611877	3,003082
0,161000	0,602570	4,009399
0,162000	0,608215	4,572906
0,163000	0,612946	4,999847
0,164000	0,607452	4,999847
0,165000	0,621490	4,999847
0,166000	0,601501	4,999847
0,167000	0,626068	4,999847
0,168000	0,594025	4,999847
0,169000	0,631104	4,424286
0,170000	0,595551	3,954010
0,171000	0,638428	2,752380
0,172000	0,603790	4,429016
0,173000	0,631561	4,999847
0,174000	0,607605	4,999847
0,175000	0,621948	4,999847
0,176000	0,612335	4,999847
0,177000	0,613556	4,999847
0,178000	0,621185	4,800262
0,179000	0,608215	3,125458
0,180000	0,631409	3,543549
0,181000	0,602264	4,999847
0,182000	0,600128	4,999847
0,183000	0,557404	4,999847
0,184000	0,627747	4,999847
0,185000	0,575562	4,999847
0,186000	0,634155	4,999847
0,187000	0,588837	4,999847
0,188000	0,628967	4,999847
0,189000	0,604553	4,273224
0,190000	0,620880	3,448639
0,191000	0,616913	3,771515
0,192000	0,609436	4,476929
0,193000	0,625458	4,999847
0,194000	0,605621	4,999847
0,195000	0,639954	4,999847
0,196000	0,606384	4,999847
0,197000	0,651245	4,999847
0,198000	0,605621	4,999847
0,199000	0,662537	3,586884
0,200000	0,599823	3,045959
0,201000	0,655212	3,818054
0,202000	0,617981	4,999847
0,203000	0,645447	4,999847
0,204000	0,627594	4,999847
0,205000	0,639496	4,999847
0,206000	0,637665	4,999847
0,207000	0,629425	4,999847
0,208000	0,650635	4,488220
0,209000	0,621338	4,618073
0,210000	0,659485	3,411560
0,211000	0,607147	3,035889
0,212000	0,665894	4,506683
0,213000	0,596466	4,871063
0,214000	0,672150	4,999847
0,215000	0,606079	4,999847
0,216000	0,659637	4,999847
0,217000	0,617218	4,999847
0,218000	0,648193	4,646606
0,219000	0,635071	3,945618
0,220000	0,634918	2,527008
0,221000	0,646057	4,478912
0,222000	0,623779	4,999847
0,223000	0,656433	4,999847
0,224000	0,616302	4,999847
0,225000	0,669250	4,999847
0,226000	0,603943	4,999847
0,227000	0,678558	4,999847
0,228000	0,592957	4,999847
0,229000	0,678101	3,935547
0,230000	0,602722	1,420898
0,231000	0,659637	3,580475
0,232000	0,623322	4,999847
0,233000	0,648651	4,999847
0,234000	0,643311	4,999847
0,235000	0,643005	4,999847
0,236000	0,664368	4,999847
0,237000	0,635986	4,977264
0,238000	0,678558	4,391327
0,239000	0,633392	2,702026
0,240000	0,692596	3,211212
0,241000	0,622101	3,826141
0,242000	0,703430	4,999847
0,243000	0,617523	4,999847
0,244000	0,697327	4,999847
0,245000	0,638733	4,999847
0,246000	0,685272	4,999847
0,247000	0,657959	4,999847
0,248000	0,673218	4,999847
0,249000	0,672150	3,729095
0,250000	0,664978	4,232635
0,251000	0,690155	3,363647
0,252000	0,650177	3,616943
0,253000	0,700226	4,999847
0,254000	0,642395	4,999847
0,255000	0,713501	4,999847
0,256000	0,634155	4,999847
0,257000	0,724945	4,999847
0,258000	0,640717	4,980469
0,259000	0,713196	3,468018
0,260000	0,661163	2,496338
0,261000	0,697937	4,999847
0,262000	0,675964	4,915466
0,263000	0,677643	4,999847
0,264000	0,685730	4,999847
0,265000	0,662689	4,999847
0,266000	0,700684	4,999847
0,267000	0,655670	4,999847
0,268000	0,716705	4,999847
0,269000	0,649872	4,029846
0,270000	0,732117	4,999847
0,271000	0,633698	4,153900
0,272000	0,738525	4,656525
0,273000	0,651093	4,999847
0,274000	0,719452	4,999847
0,275000	0,669403	4,999847
0,276000	0,704346	4,999847
0,277000	0,691376	4,999847
0,278000	0,694275	4,999847
0,279000	0,711975	3,451996
0,280000	0,690155	2,523346
0,281000	0,731201	4,789886
0,282000	0,673981	4,792175
0,283000	0,742493	4,999847
0,284000	0,627594	4,999847
0,285000	0,737457	4,999847
0,286000	0,646515	4,999847
0,287000	0,754700	4,999847
0,288000	0,674438	4,999847
0,289000	0,738831	3,842621
0,290000	0,694885	3,619232
0,291000	0,720978	4,277954
0,292000	0,714264	3,760071
0,293000	0,706482	4,999847
0,294000	0,732269	4,999847
0,295000	0,699768	4,999847
0,296000	0,751495	4,999847
0,297000	0,692139	4,999847
0,298000	0,767975	4,841309
0,299000	0,684967	2,828827
0,300000	0,783234	2,925262
0,301000	0,689545	3,898621
0,302000	0,786438	4,999847
0,303000	0,710297	4,999847
0,304000	0,760651	4,999847
0,305000	0,723724	4,999847
0,306000	0,742950	4,999847
0,307000	0,742340	4,999847
0,308000	0,724182	4,999847
0,309000	0,757904	3,859711
0,310000	0,710754	3,450317
0,311000	0,772400	3,705444
0,312000	0,704498	4,538574
0,313000	0,790253	4,999847
0,314000	0,692444	4,999847
0,315000	0,803680	4,999847
0,316000	0,710449	4,999847
0,317000	0,801239	4,999847
0,318000	0,731659	4,790497
0,319000	0,782013	2,999420
0,320000	0,750885	2,797241
0,321000	0,762634	4,909210
0,322000	0,767822	4,999847
0,323000	0,745392	4,999847
0,324000	0,784607	4,999847
0,325000	0,735626	4,999847
0,326000	0,802307	4,999847
0,327000	0,723419	4,999847
0,328000	0,817413	4,999847
0,329000	0,713501	3,939056
0,330000	0,829620	2,725677
0,331000	0,736694	3,031006
0,332000	0,818176	4,999847
0,333000	0,757904	4,999847
0,334000	0,803070	4,999847
0,335000	0,780182	4,999847
0,336000	0,796814	4,999847
0,337000	0,803528	4,999847
0,338000	0,781708	4,350891
0,339000	0,821075	2,931824
0,340000	0,773773	3,399200
0,341000	0,840302	4,455109
0,342000	0,752563	4,999847
0,343000	0,850830	4,999847
0,344000	0,752258	4,999847
0,345000	0,858459	4,999847
0,346000	0,768738	4,999847
0,347000	0,843811	4,999847
0,348000	0,789642	4,999847
0,349000	0,826263	4,266510
0,350000	0,745087	4,614716
0,351000	0,739136	4,080353
0,352000	0,736694	4,505157
0,353000	0,735474	4,999847
0,354000	0,853882	4,999847
0,355000	0,762329	4,999847
0,356000	0,866699	4,999847
0,357000	0,784149	4,999847
0,358000	0,846405	3,937225
0,359000	0,775299	3,509521
0,360000	0,798187	4,096985
0,361000	0,791473	4,999847
0,362000	0,781097	4,999847
0,363000	0,808411	4,999847
0,364000	0,765991	4,999847
0,365000	0,824585	4,999847
0,366000	0,753479	4,999847
0,367000	0,836945	4,999847
0,368000	0,740204	4,999847
0,369000	0,845490	4,066315
0,370000	0,762329	2,917633
0,371000	0,845642	3,997345
0,372000	0,781403	4,645538
0,373000	0,823975	4,999847
0,374000	0,795135	4,999847
0,375000	0,807648	4,999847
0,376000	0,814056	4,999847
0,377000	0,788574	4,999847
0,378000	0,828400	4,999847
0,379000	0,775604	3,515930
0,380000	0,841217	3,460388
0,381000	0,755920	4,032440
0,382000	0,846100	4,999847
0,383000	0,751038	4,999847
0,384000	0,848236	4,999847
0,385000	0,767822	4,999847
0,386000	0,833130	4,999847
0,387000	0,761871	4,999847
0,388000	0,811768	4,432220
0,389000	0,804291	4,596100
0,390000	0,805511	4,328613
0,391000	0,828094	3,903656
0,392000	0,788727	4,513550
0,393000	0,840149	4,999847
0,394000	0,773163	4,999847
0,395000	0,847168	4,999847
0,396000	0,759583	4,999847
0,397000	0,681610	4,967346
0,398000	0,646057	4,181366
0,399000	0,630035	3,138275
0,400000	0,622559	2,810974
0,401000	0,619049	4,578857
0,402000	0,617371	4,999847
0,403000	0,616455	4,999847
0,404000	0,615997	4,999847
0,405000	0,615845	4,999847
0,406000	0,615692	4,999847
0,407000	0,615692	4,999847
0,408000	0,615540	4,601898
0,409000	0,615540	4,154053
0,410000	0,615540	3,740845
0,411000	0,615387	3,684387
0,412000	0,615387	4,999847
0,413000	0,615692	4,857330
0,414000	0,615387	4,999847
0,415000	0,615234	4,999847
0,416000	0,615082	4,999847
0,417000	0,599213	4,716339
0,418000	0,572052	4,840546
0,419000	0,555878	3,527527
0,420000	0,541534	2,970428
0,421000	0,533905	4,999847
0,422000	0,531006	4,999847
0,423000	0,530396	4,999847
0,424000	0,528564	4,999847
0,425000	0,526428	4,999847
0,426000	0,525208	4,999847
0,427000	0,531158	4,999847
0,428000	0,535736	4,938354
0,429000	0,538788	3,504486
0,430000	0,544739	4,184723
0,431000	0,542145	3,721771
0,432000	0,548248	3,990784
0,433000	0,546112	4,999847
0,434000	0,545502	4,999847
0,435000	0,543976	4,999847
0,436000	0,542297	4,999847
0,437000	0,539551	4,999847
0,438000	0,532990	4,609985
0,439000	0,533142	3,395996
0,440000	0,528107	3,043671
0,441000	0,531921	4,999847
0,442000	0,531616	4,999847
0,443000	0,526581	4,999847
0,444000	0,523987	4,999847
0,445000	0,532837	4,999847
0,446000	0,537567	4,999847
0,447000	0,543365	4,999847
0,448000	0,540314	4,784698
0,449000	0,541534	3,591156
0,450000	0,539398	3,921204
0,451000	0,541077	3,510742
0,452000	0,546112	4,999847
0,453000	0,552063	4,999847
0,454000	0,551300	4,999847
0,455000	0,554047	4,999847
0,456000	0,557709	4,999847
0,457000	0,561218	4,657745
0,458000	0,560455	4,270782
0,459000	0,563660	2,878876
0,460000	0,559082	3,373413
0,461000	0,555878	4,999847
0,462000	0,553894	4,999847
0,463000	0,543976	4,999847
0,464000	0,539856	4,999847
0,465000	0,540314	4,999847
0,466000	0,540009	4,999847
0,467000	0,550842	4,999847
0,468000	0,539703	4,999847
0,469000	0,539856	3,509064
0,470000	0,541840	3,173218
0,471000	0,546570	4,808197
0,472000	0,546112	4,999847
0,473000	0,550842	4,999847
0,474000	0,550842	4,999847
0,475000	0,552063	4,999847
0,476000	0,552216	4,999847
0,477000	0,558319	4,845428
0,478000	0,555725	4,756165
0,479000	0,550079	2,700500
0,480000	0,550385	4,531403
0,481000	0,547638	4,999847
0,482000	0,548401	4,999847
0,483000	0,544434	4,999847
0,484000	0,547485	4,999847
0,485000	0,545044	4,999847
0,486000	0,544586	4,999847
0,487000	0,545807	4,999847
0,488000	0,551147	4,635620
0,489000	0,517273	3,953247
0,490000	0,532684	4,324493
0,491000	0,544739	3,512421
0,492000	0,550232	3,871002
0,493000	0,557861	4,999847
0,494000	0,565033	4,999847
0,495000	0,565033	4,999847
0,496000	0,565338	4,999847
0,497000	0,563965	4,999847
0,498000	0,560150	4,936829
0,499000	0,558777	2,497864
0,500000	0,555420	2,912445
0,501000	0,557098	4,999847
0,502000	0,556946	4,999847
0,503000	0,559235	4,999847
0,504000	0,561523	4,999847
0,505000	0,564423	4,999847
0,506000	0,560150	4,999847
0,507000	0,559387	4,999847
0,508000	0,561523	4,999847
0,509000	0,566559	2,840576
0,510000	0,563202	3,867645
0,511000	0,563660	4,216003
0,512000	0,562134	4,999847
0,513000	0,564270	4,999847
0,514000	0,563965	4,999847
0,515000	0,564880	4,999847
0,516000	0,566254	4,999847
0,517000	0,565948	4,999847
0,518000	0,562286	4,999847
0,519000	0,562439	3,182373
0,520000	0,562897	3,572540
0,521000	0,565338	4,445038
0,522000	0,563202	4,999847
0,523000	0,561981	4,999847
0,524000	0,561981	4,999847
0,525000	0,564117	4,999847
0,526000	0,566101	4,999847
0,527000	0,567474	4,999847
0,528000	0,572357	4,999847
0,529000	0,569458	3,244171
0,530000	0,575104	3,950195
0,531000	0,571747	3,384857
0,532000	0,574036	4,999847
0,533000	0,572205	4,999847
0,534000	0,574646	4,999847
0,535000	0,576935	4,999847
0,536000	0,577545	4,999847
0,537000	0,579681	4,999847
0,538000	0,578766	3,964844
0,539000	0,580750	3,145752
0,540000	0,575714	4,013214
0,541000	0,580597	4,970856
0,542000	0,574036	4,999847
0,543000	0,583649	4,999847
0,544000	0,579376	4,999847
0,545000	0,587616	4,999847
0,546000	0,584564	4,999847
0,547000	0,594788	4,999847
0,548000	0,590820	4,313660
0,549000	0,591431	3,807983
0,550000	0,590515	4,999847
0,551000	0,589294	4,031677
0,552000	0,591431	4,999847
0,553000	0,587616	4,999847
0,554000	0,590973	4,999847
0,555000	0,583344	4,999847
0,556000	0,594025	4,999847
0,557000	0,585785	4,999847
0,558000	0,597992	3,945770
0,559000	0,585327	2,348022
0,560000	0,593567	3,300476
0,561000	0,580444	4,778595
0,562000	0,585937	4,999847
0,563000	0,578918	4,999847
0,564000	0,583954	4,999847
0,565000	0,587311	4,999847
0,566000	0,579681	4,999847
0,567000	0,587616	4,999847
0,568000	0,573273	4,999847
0,569000	0,591431	3,767242
0,570000	0,559845	4,107666
0,571000	0,588837	3,746948
0,572000	0,571747	4,999847
0,573000	0,599518	4,999847
0,574000	0,578613	4,999847
0,575000	0,595398	4,999847
0,576000	0,580292	4,999847
0,577000	0,590515	4,999847
0,578000	0,589142	3,885193
0,579000	0,587921	2,905273
0,580000	0,593872	4,942322
0,581000	0,585480	4,376526
0,582000	0,601807	4,999847
0,583000	0,579834	4,999847
0,584000	0,605011	4,999847
0,585000	0,580902	4,999847
0,586000	0,612793	4,999847
0,587000	0,578918	4,999847
0,588000	0,611115	4,278107
0,589000	0,589142	3,814850
0,590000	0,607605	4,999847
0,591000	0,571747	3,558807
0,592000	0,578766	4,999847
0,593000	0,593109	4,999847
0,594000	0,593719	4,999847
0,595000	0,608215	4,999847
0,596000	0,592804	4,999847
0,597000	0,613403	4,655457
0,598000	0,586853	4,022217
0,599000	0,620270	2,948303
0,600000	0,590363	3,720245
0,601000	0,630188	4,999847
0,602000	0,590973	4,999847
0,603000	0,624390	4,999847
0,604000	0,602875	4,999847
0,605000	0,620575	4,999847
0,606000	0,613098	4,999847
0,607000	0,618286	4,999847
0,608000	0,621338	4,999847
0,609000	0,614471	4,088135
0,610000	0,630035	4,711609
0,611000	0,607452	3,168793
0,612000	0,634460	4,999847
0,613000	0,605927	4,999847
0,614000	0,643158	4,999847
0,615000	0,601349	4,999847
0,616000	0,646515	4,999847
0,617000	0,606079	4,357300
0,618000	0,638123	3,709106
0,619000	0,615692	2,867889
0,620000	0,629578	2,870941
0,621000	0,623169	4,999847
0,622000	0,623322	4,999847
0,623000	0,632935	4,999847
0,624000	0,616760	4,999847
0,625000	0,641174	4,999847
0,626000	0,611725	4,999847
0,627000	0,648804	4,999847
0,628000	0,605011	4,999847
0,629000	0,655670	3,740692
0,630000	0,598450	4,622192
0,631000	0,652771	4,180450
0,632000	0,614929	4,999847
0,633000	0,647125	4,999847
0,634000	0,624390	4,999847
0,635000	0,634766	4,999847
0,636000	0,634003	4,999847
0,637000	0,627136	4,691162
0,638000	0,644531	3,995667
0,639000	0,624390	2,933350
0,640000	0,655975	3,218842
0,641000	0,621033	4,999847
0,642000	0,665741	4,999847
0,643000	0,615692	4,999847
0,644000	0,674744	4,999847
0,645000	0,608215	4,999847
0,646000	0,659332	4,999847
0,647000	0,601349	4,999847
0,648000	0,627899	4,999847
0,649000	0,620117	3,905182
0,650000	0,640106	4,208221
0,651000	0,651398	3,182068
0,652000	0,643463	4,999847
0,653000	0,668640	4,400787
0,654000	0,644226	4,999847
0,655000	0,679169	4,999847
0,656000	0,627289	4,999847
0,657000	0,683289	4,522095
0,658000	0,624542	4,373016
0,659000	0,692902	2,619934
0,660000	0,632477	2,824402
0,661000	0,679474	4,999847
0,662000	0,635529	4,999847
0,663000	0,662079	4,999847
0,664000	0,650787	4,999847
0,665000	0,650024	4,999847
0,666000	0,661621	4,999847
0,667000	0,647278	4,999847
0,668000	0,677643	4,999847
0,669000	0,632172	3,449402
0,670000	0,685120	3,210297
0,671000	0,626678	4,013672
0,672000	0,697479	4,999847
0,673000	0,618134	4,999847
0,674000	0,695496	4,999847
0,675000	0,625610	4,999847
0,676000	0,676422	4,999847
0,677000	0,634766	4,968109
0,678000	0,655518	4,650726
0,679000	0,651093	2,729797
0,680000	0,646515	4,018402
0,681000	0,666809	4,999847
0,682000	0,641327	4,999847
0,683000	0,686493	4,999847
0,684000	0,633545	4,999847
0,685000	0,700226	4,999847
0,686000	0,630493	4,999847
0,687000	0,714264	4,999847
0,688000	0,629272	4,999847
0,689000	0,707092	3,303223
0,690000	0,645447	3,378143
0,691000	0,691223	4,206848
0,692000	0,667114	4,999847
0,693000	0,679779	4,999847
0,694000	0,646362	4,999847
0,695000	0,642395	4,999847
0,696000	0,685883	4,999847
0,697000	0,659637	4,999847
0,698000	0,712280	4,153442
0,699000	0,647736	2,636871
0,700000	0,723877	4,321747
0,701000	0,643768	4,528046
0,702000	0,738068	4,999847
0,703000	0,653992	4,999847
0,704000	0,723724	4,999847
0,705000	0,670319	4,999847
0,706000	0,713806	4,999847
0,707000	0,690460	4,999847
0,708000	0,699005	4,999847
0,709000	0,707397	3,240356
0,710000	0,682678	4,352264
0,711000	0,720215	3,776245
0,712000	0,663910	4,999847
0,713000	0,729370	4,999847
0,714000	0,655060	4,999847
0,715000	0,742950	4,999847
0,716000	0,646820	4,999847
0,717000	0,754852	4,940033
0,718000	0,669250	4,714050
0,719000	0,731964	2,724915
0,720000	0,683289	3,472443
0,721000	0,709991	4,999847
0,722000	0,696411	4,999847
0,723000	0,691681	4,999847
0,724000	0,714264	4,999847
0,725000	0,678406	4,999847
0,726000	0,730896	4,999847
0,727000	0,665283	4,999847
0,728000	0,745697	4,999847
0,729000	0,652466	3,414459
0,730000	0,757751	4,496307
0,731000	0,650024	4,053497
0,732000	0,751038	4,999847
0,733000	0,676880	4,999847
0,734000	0,743103	4,999847
0,735000	0,704803	4,999847
0,736000	0,727539	4,999847
0,737000	0,724487	4,999847
0,738000	0,717316	3,910980
0,739000	0,746918	2,971497
0,740000	0,714417	4,134216
0,741000	0,767212	4,709778
0,742000	0,701904	4,999847
0,743000	0,780945	4,999847
0,744000	0,696869	4,999847
0,745000	0,797577	4,999847
0,746000	0,701599	4,999847
0,747000	0,797424	4,999847
0,748000	0,722351	4,778290
0,749000	0,780945	3,119354
0,750000	0,744629	4,372559
0,751000	0,765533	3,530579
0,752000	0,762634	4,999847
0,753000	0,750122	4,999847
0,754000	0,778198	4,999847
0,755000	0,738373	4,999847
0,756000	0,794678	4,999847
0,757000	0,726471	4,999847
0,758000	0,810242	4,965363
0,759000	0,716095	2,669830
0,760000	0,826263	4,414673
0,761000	0,741425	4,503479
0,762000	0,836029	4,999847
0,763000	0,760498	4,999847
0,764000	0,806885	4,999847
0,765000	0,772552	4,999847
0,766000	0,797729	4,999847
0,767000	0,794678	4,999847
0,768000	0,774994	4,454041
0,769000	0,807648	3,645935
0,770000	0,762482	4,938049
0,771000	0,824585	3,016663
0,772000	0,755157	4,999847
0,773000	0,842438	4,999847
0,774000	0,749969	4,999847
0,775000	0,856323	4,999847
0,776000	0,771179	4,999847
0,777000	0,857239	4,999847
0,778000	0,788727	3,880920
0,779000	0,834656	3,195801
0,780000	0,804443	4,999847
0,781000	0,817871	4,999847
0,782000	0,822449	4,999847
0,783000	0,802002	4,999847
0,784000	0,840607	4,999847
0,785000	0,782013	4,999847
0,786000	0,851746	4,999847
0,787000	0,768738	4,999847
0,788000	0,746460	4,064331
0,789000	0,738983	3,522644
0,790000	0,735168	4,706116
0,791000	0,753021	2,929687
0,792000	0,863953	4,999847
0,793000	0,794525	4,999847
0,794000	0,858154	4,999847
0,795000	0,811462	4,999847
0,796000	0,819855	4,999847
0,797000	0,794220	4,999847
0,798000	0,803833	3,400574
0,799000	0,812683	2,996216
0,800000	0,768890	4,687500
0,801000	0,829468	4,582977
0,802000	0,758209	4,999847
0,803000	0,841217	4,999847
0,804000	0,747375	4,999847
0,805000	0,847168	4,999847
0,806000	0,767212	4,999847
0,807000	0,845490	4,999847
0,808000	0,786743	4,850159
0,809000	0,829163	3,704376
0,810000	0,802460	4,966888
0,811000	0,811005	3,393250
0,812000	0,820618	4,999847
0,813000	0,789642	4,999847
0,814000	0,832367	4,999847
0,815000	0,775909	4,999847
0,816000	0,842743	4,999847
0,817000	0,762939	4,745178
0,818000	0,848846	3,987885
0,819000	0,764160	3,425293
0,820000	0,850220	3,127289
0,821000	0,782013	3,936920
0,822000	0,846405	4,999847
0,823000	0,802307	4,999847
0,824000	0,827484	4,999847
0,825000	0,818024	4,999847
0,826000	0,802612	4,999847
0,827000	0,830383	4,999847
0,828000	0,784149	4,980011
0,829000	0,840912	3,683472
0,830000	0,772858	4,679718
0,831000	0,848846	3,159637
0,832000	0,752563	4,999847
0,833000	0,850830	4,999847
0,834000	0,739136	4,999847
0,835000	0,672302	4,999847
0,836000	0,642548	4,999847
0,837000	0,628815	4,713745
0,838000	0,624542	3,562317
0,839000	0,623016	3,091888
0,840000	0,619965	2,930298
0,841000	0,617828	3,993988
0,842000	0,617371	4,999847
0,843000	0,616608	4,999847
0,844000	0,616455	4,999847
0,845000	0,616455	4,999847
0,846000	0,616455	4,999847
0,847000	0,616455	4,999847
0,848000	0,615845	4,981079
0,849000	0,615845	3,554993
0,850000	0,615692	3,054962
0,851000	0,615692	4,090271
0,852000	0,615692	4,999847
0,853000	0,615845	4,999847
0,854000	0,615540	4,999847
0,855000	0,599213	4,999847
0,856000	0,575714	4,999847
0,857000	0,561218	4,999847
0,858000	0,557556	4,832611
0,859000	0,554810	3,317108
0,860000	0,557556	3,227539
0,861000	0,558929	4,603119
0,862000	0,558472	4,999847
0,863000	0,555878	4,999847
0,864000	0,559235	4,999847
0,865000	0,560303	4,999847
0,866000	0,561371	4,999847
0,867000	0,562439	4,999847
0,868000	0,561218	4,999847
0,869000	0,559845	3,477478
0,870000	0,559082	4,125519
0,871000	0,560760	2,733307
0,872000	0,563965	4,999847
0,873000	0,564423	4,999847
0,874000	0,568237	4,999847
0,875000	0,566559	4,999847
0,876000	0,565033	4,999847
0,877000	0,563202	4,999847
0,878000	0,561371	3,676758
0,879000	0,557251	3,065948
0,880000	0,547791	2,948303
0,881000	0,544434	4,999847
0,882000	0,533142	4,999847
0,883000	0,538177	4,999847
0,884000	0,541687	4,999847
0,885000	0,543823	4,999847
0,886000	0,541840	4,999847
0,887000	0,546570	4,999847
0,888000	0,548706	4,269714
0,889000	0,549011	3,117523
0,890000	0,550079	3,284760
0,891000	0,550537	3,345795
0,892000	0,550079	4,999847
0,893000	0,552673	4,999847
0,894000	0,555420	4,999847
0,895000	0,557404	4,999847
0,896000	0,557098	4,999847
0,897000	0,553894	4,401703
0,898000	0,542450	4,256287
0,899000	0,519104	3,053284
0,900000	0,539093	3,776703
0,901000	0,554962	4,505463
0,902000	0,565491	4,999847
0,903000	0,570831	4,999847
0,904000	0,575104	4,999847
0,905000	0,579834	4,999847
0,906000	0,588684	4,999847
0,907000	0,589447	4,999847
0,908000	0,591431	4,999847
0,909000	0,589142	2,640839
0,910000	0,592499	4,015656
0,911000	0,592346	4,201813
0,912000	0,592499	4,999847
0,913000	0,593109	4,999847
0,914000	0,587158	4,999847
0,915000	0,586090	4,999847
0,916000	0,583649	4,999847
0,917000	0,586243	4,999847
0,918000	0,588989	4,021301
0,919000	0,590668	2,646942
0,920000	0,590668	3,706055
0,921000	0,591431	4,977112
0,922000	0,590057	4,999847
0,923000	0,590210	4,999847
0,924000	0,583344	4,999847
0,925000	0,578156	4,999847
0,926000	0,575104	4,999847
0,927000	0,578461	4,999847
0,928000	0,579376	4,974060
0,929000	0,579224	2,864990
0,930000	0,576019	4,912262
0,931000	0,575104	4,487610
0,932000	0,573425	4,999847
0,933000	0,574188	4,999847
0,934000	0,576935	4,999847
0,935000	0,581970	4,999847
0,936000	0,578613	4,999847
0,937000	0,583954	4,999847
0,938000	0,589447	3,349457
0,939000	0,587921	2,754211
0,940000	0,591125	4,099579
0,941000	0,594635	4,183502
0,942000	0,596771	4,999847
0,943000	0,593414	4,999847
0,944000	0,590973	4,999847
0,945000	0,590210	4,999847
0,946000	0,588531	4,999847
0,947000	0,583038	4,999847
0,948000	0,583191	4,232788
0,949000	0,586090	3,141327
0,950000	0,581970	4,917908
0,951000	0,586853	2,985992
0,952000	0,588226	4,999847
0,953000	0,592346	4,999847
0,954000	0,589905	4,999847
0,955000	0,590515	4,999847
0,956000	0,581818	4,999847
0,957000	0,575562	4,999847
0,958000	0,570831	4,050751
0,959000	0,571594	2,454376
0,960000	0,572968	3,879700
0,961000	0,572815	4,973145
0,962000	0,577698	4,999847
0,963000	0,577850	4,999847
0,964000	0,578308	4,999847
0,965000	0,574341	4,999847
0,966000	0,575104	4,999847
0,967000	0,572052	4,999847
0,968000	0,574036	4,999847
0,969000	0,569305	2,961426
0,970000	0,570984	4,999847
0,971000	0,567627	3,671875
0,972000	0,568848	4,999847
0,973000	0,570221	4,999847
0,974000	0,574646	4,999847
0,975000	0,579071	4,999847
0,976000	0,575256	4,999847
0,977000	0,573425	4,999847
0,978000	0,569611	3,549194
0,979000	0,576782	2,217712
0,980000	0,568848	4,776917
0,981000	0,579376	4,965820
0,982000	0,574646	4,999847
0,983000	0,581512	4,999847
0,984000	0,577393	4,999847
0,985000	0,581665	4,999847
0,986000	0,581818	4,999847
0,987000	0,584259	4,999847
0,988000	0,587463	4,656372
0,989000	0,588989	3,119659
0,990000	0,596161	4,999847
0,991000	0,588837	3,018036
0,992000	0,591125	4,999847
0,993000	0,579681	4,999847
0,994000	0,591583	4,999847
0,995000	0,579681	4,999847
0,996000	0,595245	4,999847
0,997000	0,589294	4,778442
0,998000	0,597076	3,790131
0,999000	0,595856	3,161926

