LabVIEW Measurement	
Writer_Version	2
Reader_Version	2
Separator	Tab
Decimal_Separator	,
Multi_Headings	Yes
X_Columns	One
Time_Pref	Absolute
Operator	d.nicolai
Date	2023/11/09
Time	16:04:05,6565121999996605588
***End_of_Header***	
	
Channels	2		
Samples	1000	1000	
Date	2023/11/09	2023/11/09	
Time	16:04:08,8415128999995647665	16:04:08,8415128999995647665	
Y_Unit_Label	Volts	Volts	
X_Dimension	Time	Time	
X0	0,0000000000000000E+0	0,0000000000000000E+0	
Delta_X	0,001000	0,001000	
***End_of_Header***			
X_Value	powebox	triggerbox	Comment
0,000000	0,653076	1,043854
0,001000	0,621490	4,843597
0,002000	0,659943	4,999847
0,003000	0,619812	4,999847
0,004000	0,661163	4,999847
0,005000	0,628662	4,999847
0,006000	0,654602	4,999847
0,007000	0,638275	4,999847
0,008000	0,649109	4,999847
0,009000	0,647278	3,250427
0,010000	0,646057	4,294586
0,011000	0,656281	3,649750
0,012000	0,639038	3,117676
0,013000	0,663300	4,999847
0,014000	0,635376	4,999847
0,015000	0,671234	4,999847
0,016000	0,631561	4,999847
0,017000	0,677948	4,999847
0,018000	0,633545	4,681244
0,019000	0,676117	3,240204
0,020000	0,647278	4,327850
0,021000	0,669403	3,183289
0,022000	0,656586	4,787750
0,023000	0,657959	4,999847
0,024000	0,658569	4,999847
0,025000	0,647583	4,999847
0,026000	0,666351	4,999847
0,027000	0,640717	4,999847
0,028000	0,674896	4,999847
0,029000	0,636902	4,545593
0,030000	0,684357	4,999847
0,031000	0,630188	2,969971
0,032000	0,690918	4,223022
0,033000	0,639801	4,619904
0,034000	0,682831	4,999847
0,035000	0,650330	4,999847
0,036000	0,673676	4,999847
0,037000	0,662994	4,999847
0,038000	0,661774	4,999847
0,039000	0,670471	2,689819
0,040000	0,656586	3,217621
0,041000	0,683136	4,963531
0,042000	0,653839	4,999847
0,043000	0,694733	4,999847
0,044000	0,611877	4,999847
0,045000	0,658722	4,999847
0,046000	0,610504	4,999847
0,047000	0,692902	4,999847
0,048000	0,646362	4,999847
0,049000	0,690002	4,618530
0,050000	0,658722	4,914856
0,051000	0,676727	2,992554
0,052000	0,670013	4,114380
0,053000	0,665283	4,999847
0,054000	0,681610	4,999847
0,055000	0,658417	4,999847
0,056000	0,696716	4,999847
0,057000	0,658264	4,999847
0,058000	0,711517	4,211884
0,059000	0,648193	3,861389
0,060000	0,718079	3,386078
0,061000	0,648956	4,554596
0,062000	0,716248	4,999847
0,063000	0,658722	4,999847
0,064000	0,700836	4,999847
0,065000	0,677032	4,999847
0,066000	0,690613	4,999847
0,067000	0,690918	4,999847
0,068000	0,681000	4,999847
0,069000	0,704041	3,161011
0,070000	0,669861	3,943176
0,071000	0,715332	3,661957
0,072000	0,664978	3,828430
0,073000	0,728760	4,999847
0,074000	0,660248	4,999847
0,075000	0,740814	4,999847
0,076000	0,667419	4,999847
0,077000	0,733490	4,999847
0,078000	0,684967	4,367828
0,079000	0,718994	3,412170
0,080000	0,695496	3,152466
0,081000	0,696564	4,073181
0,082000	0,703430	4,999847
0,083000	0,686646	4,999847
0,084000	0,721893	4,999847
0,085000	0,681152	4,999847
0,086000	0,736237	4,999847
0,087000	0,673981	4,999847
0,088000	0,749207	4,999847
0,089000	0,662384	4,462738
0,090000	0,757904	2,836609
0,091000	0,676270	4,628448
0,092000	0,739441	4,219055
0,093000	0,691223	4,999847
0,094000	0,724487	4,999847
0,095000	0,710602	4,999847
0,096000	0,714417	4,999847
0,097000	0,727692	4,999847
0,098000	0,698853	4,999847
0,099000	0,741425	3,679047
0,100000	0,692139	4,222260
0,101000	0,757599	4,437561
0,102000	0,683746	4,999847
0,103000	0,769501	4,999847
0,104000	0,682526	4,999847
0,105000	0,779572	4,999847
0,106000	0,705109	4,999847
0,107000	0,765533	4,999847
0,108000	0,724030	4,457245
0,109000	0,737762	4,169617
0,110000	0,729370	4,502869
0,111000	0,721893	3,625793
0,112000	0,744781	4,145203
0,113000	0,705872	4,999847
0,114000	0,759430	4,999847
0,115000	0,697021	4,999847
0,116000	0,774536	4,999847
0,117000	0,687561	4,999847
0,118000	0,789185	4,363251
0,119000	0,692139	3,253479
0,120000	0,790253	3,888397
0,121000	0,718994	3,476410
0,122000	0,775299	4,999847
0,123000	0,738983	4,999847
0,124000	0,760345	4,999847
0,125000	0,757904	4,999847
0,126000	0,744934	4,999847
0,127000	0,772858	4,999847
0,128000	0,730743	4,999847
0,129000	0,786743	4,413147
0,130000	0,713196	4,317780
0,131000	0,799255	3,776093
0,132000	0,700378	4,645844
0,133000	0,812836	4,999847
0,134000	0,724945	4,999847
0,135000	0,815887	4,999847
0,136000	0,746460	4,999847
0,137000	0,800171	4,999847
0,138000	0,766907	4,855347
0,139000	0,784912	3,137817
0,140000	0,784912	2,320251
0,141000	0,764923	4,397430
0,142000	0,798645	4,999847
0,143000	0,751801	4,999847
0,144000	0,814972	4,999847
0,145000	0,738373	4,999847
0,146000	0,809326	4,999847
0,147000	0,704041	4,999847
0,148000	0,829010	4,999847
0,149000	0,748596	4,384918
0,150000	0,838165	4,374084
0,151000	0,774689	3,863068
0,152000	0,821228	4,141998
0,153000	0,793304	4,999847
0,154000	0,803833	4,999847
0,155000	0,811157	4,999847
0,156000	0,785828	4,999847
0,157000	0,826263	4,999847
0,158000	0,762024	4,330444
0,159000	0,837402	4,403381
0,160000	0,743713	3,101654
0,161000	0,849762	4,352112
0,162000	0,751495	4,817505
0,163000	0,859680	4,999847
0,164000	0,773621	4,999847
0,165000	0,846405	4,999847
0,166000	0,726166	4,999847
0,167000	0,716858	4,999847
0,168000	0,714264	4,999847
0,169000	0,731659	4,506989
0,170000	0,833588	2,980804
0,171000	0,762482	4,999847
0,172000	0,820770	4,792023
0,173000	0,782928	4,999847
0,174000	0,799561	4,999847
0,175000	0,798950	4,999847
0,176000	0,785828	4,999847
0,177000	0,817566	4,999847
0,178000	0,770569	4,271240
0,179000	0,831299	3,625183
0,180000	0,757141	2,690125
0,181000	0,841370	4,999847
0,182000	0,749207	4,999847
0,183000	0,847015	4,999847
0,184000	0,769196	4,999847
0,185000	0,845490	4,999847
0,186000	0,789032	4,999847
0,187000	0,826416	4,999847
0,188000	0,803375	4,869232
0,189000	0,802155	3,545837
0,190000	0,817413	4,635925
0,191000	0,788879	3,063965
0,192000	0,833282	3,499908
0,193000	0,770111	4,999847
0,194000	0,842285	4,999847
0,195000	0,754395	4,999847
0,196000	0,847931	4,999847
0,197000	0,761566	4,992676
0,198000	0,849609	4,752197
0,199000	0,783997	3,463440
0,200000	0,845795	3,584900
0,201000	0,804596	4,267426
0,202000	0,830536	4,999847
0,203000	0,821686	4,999847
0,204000	0,809784	4,999847
0,205000	0,835419	4,999847
0,206000	0,792694	4,999847
0,207000	0,844727	4,999847
0,208000	0,779877	4,999847
0,209000	0,850067	3,895416
0,210000	0,765533	2,989655
0,211000	0,852203	3,428802
0,212000	0,751038	3,846283
0,213000	0,677795	4,640503
0,214000	0,644684	4,999847
0,215000	0,628967	4,999847
0,216000	0,622101	4,999847
0,217000	0,618896	4,999847
0,218000	0,617065	4,454651
0,219000	0,616455	2,633209
0,220000	0,615845	3,880463
0,221000	0,615540	3,988953
0,222000	0,615692	4,999847
0,223000	0,615387	4,999847
0,224000	0,615387	4,999847
0,225000	0,615540	4,999847
0,226000	0,615387	4,999847
0,227000	0,615234	4,999847
0,228000	0,615082	4,943542
0,229000	0,614929	4,171295
0,230000	0,614624	3,548737
0,231000	0,615082	3,038483
0,232000	0,615082	3,422852
0,233000	0,599213	4,999847
0,234000	0,578461	4,999847
0,235000	0,569916	4,999847
0,236000	0,565948	4,999847
0,237000	0,564270	4,999847
0,238000	0,563354	4,171448
0,239000	0,563965	2,850647
0,240000	0,562592	3,334351
0,241000	0,560760	4,044495
0,242000	0,559998	4,622803
0,243000	0,559235	4,999847
0,244000	0,561371	4,999847
0,245000	0,562744	4,999847
0,246000	0,562592	4,999847
0,247000	0,562439	4,999847
0,248000	0,558929	4,999847
0,249000	0,521393	3,537292
0,250000	0,541992	4,242706
0,251000	0,553589	3,624725
0,252000	0,558929	3,625031
0,253000	0,562134	4,999847
0,254000	0,564880	4,999847
0,255000	0,564728	4,999847
0,256000	0,563660	4,999847
0,257000	0,564575	4,999847
0,258000	0,566254	4,922485
0,259000	0,565643	3,569946
0,260000	0,566406	4,014587
0,261000	0,567169	4,638977
0,262000	0,566101	4,999847
0,263000	0,565491	4,999847
0,264000	0,565491	4,999847
0,265000	0,566711	4,999847
0,266000	0,563965	4,999847
0,267000	0,563660	4,999847
0,268000	0,563660	4,999847
0,269000	0,565491	4,005432
0,270000	0,563049	4,620209
0,271000	0,559998	4,180145
0,272000	0,556183	3,090057
0,273000	0,555267	4,999847
0,274000	0,555725	4,999847
0,275000	0,558624	4,999847
0,276000	0,558167	4,999847
0,277000	0,557251	4,999847
0,278000	0,563965	4,999847
0,279000	0,565033	3,212738
0,280000	0,566254	2,853851
0,281000	0,565033	4,468842
0,282000	0,561676	4,999847
0,283000	0,557404	4,999847
0,284000	0,557404	4,999847
0,285000	0,555420	4,999847
0,286000	0,552673	4,999847
0,287000	0,553131	4,999847
0,288000	0,544739	4,777985
0,289000	0,546112	4,293213
0,290000	0,547485	3,976288
0,291000	0,546722	2,882233
0,292000	0,546875	2,906647
0,293000	0,544739	4,999847
0,294000	0,541382	4,999847
0,295000	0,534668	4,999847
0,296000	0,533905	4,999847
0,297000	0,527649	4,999847
0,298000	0,531464	4,721222
0,299000	0,531464	3,299103
0,300000	0,532684	4,886627
0,301000	0,529022	2,778778
0,302000	0,528564	4,999847
0,303000	0,519409	4,999847
0,304000	0,514069	4,999847
0,305000	0,512695	4,999847
0,306000	0,510559	4,999847
0,307000	0,509186	4,999847
0,308000	0,506897	4,594421
0,309000	0,506744	3,399658
0,310000	0,510712	3,082123
0,311000	0,518646	4,521942
0,312000	0,520935	4,770508
0,313000	0,530548	4,999847
0,314000	0,536346	4,999847
0,315000	0,540466	4,999847
0,316000	0,547028	4,999847
0,317000	0,553284	4,999847
0,318000	0,557861	3,862610
0,319000	0,563202	3,179016
0,320000	0,571899	3,243103
0,321000	0,579376	4,100494
0,322000	0,581818	4,539948
0,323000	0,586700	4,999847
0,324000	0,598145	4,999847
0,325000	0,602417	4,999847
0,326000	0,599213	4,999847
0,327000	0,602264	4,999847
0,328000	0,597382	4,999847
0,329000	0,599060	4,053192
0,330000	0,596161	3,296967
0,331000	0,598907	2,275238
0,332000	0,599976	3,526001
0,333000	0,603790	4,999847
0,334000	0,603638	4,999847
0,335000	0,598450	4,999847
0,336000	0,597992	4,999847
0,337000	0,596771	4,999847
0,338000	0,597687	4,999847
0,339000	0,591278	3,146515
0,340000	0,586548	2,943726
0,341000	0,579224	4,999847
0,342000	0,576172	4,350586
0,343000	0,574951	4,999847
0,344000	0,576324	4,999847
0,345000	0,570068	4,999847
0,346000	0,573273	4,999847
0,347000	0,572052	4,999847
0,348000	0,569916	4,600067
0,349000	0,570831	4,456177
0,350000	0,570984	2,391968
0,351000	0,548706	3,762512
0,352000	0,530853	4,175720
0,353000	0,550232	4,999847
0,354000	0,564728	4,999847
0,355000	0,581360	4,999847
0,356000	0,581665	4,999847
0,357000	0,590515	4,999847
0,358000	0,587311	4,207458
0,359000	0,595703	3,385468
0,360000	0,592499	3,508759
0,361000	0,595551	4,088135
0,362000	0,596466	4,999847
0,363000	0,592957	4,999847
0,364000	0,592804	4,999847
0,365000	0,586090	4,999847
0,366000	0,588379	4,999847
0,367000	0,574188	4,999847
0,368000	0,584259	4,803467
0,369000	0,577545	4,237061
0,370000	0,589447	3,955536
0,371000	0,582733	3,844910
0,372000	0,594635	4,960785
0,373000	0,588531	4,999847
0,374000	0,594025	4,999847
0,375000	0,589294	4,999847
0,376000	0,587311	4,999847
0,377000	0,589752	4,999847
0,378000	0,593719	4,792480
0,379000	0,600433	3,864136
0,380000	0,598450	3,430481
0,381000	0,607910	4,619446
0,382000	0,602722	4,920654
0,383000	0,613708	4,999847
0,384000	0,606842	4,999847
0,385000	0,621490	4,999847
0,386000	0,605774	4,999847
0,387000	0,616913	4,999847
0,388000	0,609283	4,999847
0,389000	0,614777	4,351959
0,390000	0,612183	3,320770
0,391000	0,615540	3,039398
0,392000	0,615997	4,317169
0,393000	0,609131	4,999847
0,394000	0,617523	4,999847
0,395000	0,610352	4,999847
0,396000	0,619812	4,999847
0,397000	0,610046	4,971313
0,398000	0,625305	4,464874
0,399000	0,610809	4,064331
0,400000	0,631866	3,710480
0,401000	0,617371	4,070129
0,402000	0,629425	4,891663
0,403000	0,621643	4,999847
0,404000	0,627899	4,999847
0,405000	0,623169	4,999847
0,406000	0,611267	4,999847
0,407000	0,614319	4,999847
0,408000	0,622864	4,660492
0,409000	0,636139	3,952026
0,410000	0,626526	3,356018
0,411000	0,641022	4,151764
0,412000	0,627136	4,109802
0,413000	0,646210	4,948883
0,414000	0,628815	4,999847
0,415000	0,662231	4,999847
0,416000	0,647583	4,999847
0,417000	0,659943	4,999847
0,418000	0,648346	4,544678
0,419000	0,651855	3,749237
0,420000	0,642548	1,983948
0,421000	0,633545	4,999847
0,422000	0,639343	4,999847
0,423000	0,628967	4,999847
0,424000	0,644684	4,999847
0,425000	0,627594	4,999847
0,426000	0,650787	4,999847
0,427000	0,626068	4,999847
0,428000	0,656281	4,999847
0,429000	0,628967	4,718933
0,430000	0,654144	3,472595
0,431000	0,637817	3,539886
0,432000	0,652313	4,246674
0,433000	0,643921	4,999847
0,434000	0,648041	4,999847
0,435000	0,649872	4,999847
0,436000	0,642395	4,999847
0,437000	0,654297	4,999847
0,438000	0,637054	4,999847
0,439000	0,659637	3,803711
0,440000	0,637970	4,019012
0,441000	0,667419	4,658203
0,442000	0,638428	4,999847
0,443000	0,675201	4,999847
0,444000	0,646973	4,999847
0,445000	0,672455	4,999847
0,446000	0,656891	4,999847
0,447000	0,672455	4,999847
0,448000	0,666199	4,999847
0,449000	0,670166	3,206177
0,450000	0,674133	4,534149
0,451000	0,664978	3,638763
0,452000	0,679626	4,262238
0,453000	0,648651	4,999847
0,454000	0,648651	4,999847
0,455000	0,632477	4,999847
0,456000	0,678101	4,999847
0,457000	0,646362	4,999847
0,458000	0,688477	4,999847
0,459000	0,657043	3,072205
0,460000	0,683136	2,484283
0,461000	0,665588	4,999847
0,462000	0,673218	4,893188
0,463000	0,670776	4,999847
0,464000	0,667114	4,999847
0,465000	0,676880	4,999847
0,466000	0,659332	4,999847
0,467000	0,684662	4,999847
0,468000	0,653534	4,999847
0,469000	0,690613	4,122772
0,470000	0,631561	2,189484
0,471000	0,690002	2,729187
0,472000	0,629425	3,708038
0,473000	0,682831	4,999847
0,474000	0,646667	4,999847
0,475000	0,676117	4,999847
0,476000	0,659943	4,999847
0,477000	0,667419	4,999847
0,478000	0,671997	4,731598
0,479000	0,661621	3,054352
0,480000	0,682068	3,190460
0,481000	0,655212	4,967804
0,482000	0,692902	4,999847
0,483000	0,648956	4,999847
0,484000	0,702667	4,999847
0,485000	0,647430	4,999847
0,486000	0,712738	4,999847
0,487000	0,649567	4,999847
0,488000	0,699005	4,999847
0,489000	0,663300	3,703308
0,490000	0,687714	4,587708
0,491000	0,673828	4,244843
0,492000	0,678711	4,658508
0,493000	0,688477	4,999847
0,494000	0,670319	4,999847
0,495000	0,700073	4,999847
0,496000	0,666809	4,999847
0,497000	0,713501	4,999847
0,498000	0,661926	4,371948
0,499000	0,723724	3,172760
0,500000	0,656738	3,326874
0,501000	0,730591	4,920502
0,502000	0,670624	4,999847
0,503000	0,717621	4,999847
0,504000	0,686035	4,999847
0,505000	0,707855	4,999847
0,506000	0,700836	4,999847
0,507000	0,697784	4,999847
0,508000	0,712128	4,999847
0,509000	0,684509	3,602295
0,510000	0,720673	4,192200
0,511000	0,673218	2,859650
0,512000	0,731049	4,940186
0,513000	0,667725	4,999847
0,514000	0,742645	4,999847
0,515000	0,664673	4,999847
0,516000	0,740814	4,999847
0,517000	0,681610	4,999847
0,518000	0,726471	4,864807
0,519000	0,694275	2,837830
0,520000	0,709076	3,530121
0,521000	0,708923	4,999847
0,522000	0,698700	4,999847
0,523000	0,723724	4,999847
0,524000	0,688477	4,999847
0,525000	0,737000	4,999847
0,526000	0,679779	4,999847
0,527000	0,750122	4,999847
0,528000	0,672607	4,999847
0,529000	0,762024	4,049835
0,530000	0,682526	4,492187
0,531000	0,756683	2,799835
0,532000	0,701752	4,436035
0,533000	0,749969	4,999847
0,534000	0,728607	4,999847
0,535000	0,745087	4,999847
0,536000	0,746918	4,999847
0,537000	0,733490	4,999847
0,538000	0,758514	4,999847
0,539000	0,718689	3,198547
0,540000	0,768127	3,840790
0,541000	0,710754	4,999847
0,542000	0,781250	4,999847
0,543000	0,696564	4,999847
0,544000	0,790710	4,999847
0,545000	0,723267	4,999847
0,546000	0,797577	4,999847
0,547000	0,743561	4,999847
0,548000	0,787354	4,999847
0,549000	0,761414	3,578339
0,550000	0,773926	4,883881
0,551000	0,775757	3,795776
0,552000	0,760803	4,758148
0,553000	0,787964	4,999847
0,554000	0,753174	4,999847
0,555000	0,802460	4,999847
0,556000	0,713043	4,999847
0,557000	0,799561	4,999847
0,558000	0,735931	4,888000
0,559000	0,825806	2,566071
0,560000	0,753632	3,495026
0,561000	0,820312	4,999847
0,562000	0,765839	4,999847
0,563000	0,805359	4,999847
0,564000	0,777283	4,999847
0,565000	0,789490	4,999847
0,566000	0,794525	4,999847
0,567000	0,760040	4,999847
0,568000	0,798187	4,752350
0,569000	0,758209	3,812408
0,570000	0,820923	4,438171
0,571000	0,752411	3,760376
0,572000	0,838623	4,999847
0,573000	0,756531	4,999847
0,574000	0,845184	4,999847
0,575000	0,756226	4,999847
0,576000	0,821228	4,999847
0,577000	0,772705	4,999847
0,578000	0,800781	4,999847
0,579000	0,787506	3,403625
0,580000	0,785675	2,628174
0,581000	0,805054	4,993744
0,582000	0,763702	4,999847
0,583000	0,816803	4,999847
0,584000	0,750732	4,999847
0,585000	0,832062	4,999847
0,586000	0,734711	4,999847
0,587000	0,845184	4,999847
0,588000	0,755310	4,999847
0,589000	0,852966	3,875122
0,590000	0,777588	4,168549
0,591000	0,837860	3,470612
0,592000	0,797272	4,663696
0,593000	0,819550	4,999847
0,594000	0,814514	4,999847
0,595000	0,802765	4,999847
0,596000	0,830841	4,999847
0,597000	0,790100	4,999847
0,598000	0,847321	4,849243
0,599000	0,757904	3,197632
0,600000	0,852814	4,198151
0,601000	0,771027	4,358978
0,602000	0,871735	4,999847
0,603000	0,762177	4,999847
0,604000	0,734253	4,999847
0,605000	0,722351	4,999847
0,606000	0,717316	4,999847
0,607000	0,735016	4,999847
0,608000	0,839539	4,999847
0,609000	0,771332	3,954163
0,610000	0,829773	4,942627
0,611000	0,790100	4,073334
0,612000	0,809631	4,898682
0,613000	0,804749	4,999847
0,614000	0,792694	4,999847
0,615000	0,821533	4,999847
0,616000	0,772247	4,999847
0,617000	0,832520	4,999847
0,618000	0,754700	4,975891
0,619000	0,840759	2,946930
0,620000	0,747528	3,977509
0,621000	0,847168	4,999847
0,622000	0,771179	4,999847
0,623000	0,845947	4,999847
0,624000	0,790863	4,999847
0,625000	0,832672	4,999847
0,626000	0,807953	4,999847
0,627000	0,808258	4,999847
0,628000	0,821381	4,921875
0,629000	0,795135	3,223877
0,630000	0,836792	4,726410
0,631000	0,781708	3,433685
0,632000	0,845642	4,999847
0,633000	0,763397	4,999847
0,634000	0,849304	4,999847
0,635000	0,770416	4,999847
0,636000	0,850525	4,999847
0,637000	0,790558	4,999847
0,638000	0,846710	4,951477
0,639000	0,806580	3,365326
0,640000	0,835114	4,111633
0,641000	0,824890	4,999847
0,642000	0,815582	4,999847
0,643000	0,838318	4,999847
0,644000	0,797882	4,999847
0,645000	0,846252	4,999847
0,646000	0,785217	4,999847
0,647000	0,850677	4,994202
0,648000	0,769958	4,999847
0,649000	0,852356	3,966217
0,650000	0,754547	2,733917
0,651000	0,679474	4,999847
0,652000	0,645752	4,999847
0,653000	0,629883	4,999847
0,654000	0,622406	4,999847
0,655000	0,619049	4,999847
0,656000	0,617523	4,999847
0,657000	0,616608	4,999847
0,658000	0,602875	4,999847
0,659000	0,589294	3,305969
0,660000	0,599823	2,734985
0,661000	0,608368	4,999847
0,662000	0,612183	4,999847
0,663000	0,614014	4,999847
0,664000	0,614929	4,999847
0,665000	0,614777	4,999847
0,666000	0,614929	4,999847
0,667000	0,615234	4,606476
0,668000	0,615082	4,999847
0,669000	0,615540	3,756561
0,670000	0,615082	3,925171
0,671000	0,596771	3,723297
0,672000	0,588684	4,999847
0,673000	0,584564	4,999847
0,674000	0,583344	4,999847
0,675000	0,584412	4,999847
0,676000	0,584106	4,999847
0,677000	0,583801	4,999847
0,678000	0,585327	4,999847
0,679000	0,574341	2,976837
0,680000	0,546112	4,569397
0,681000	0,512238	4,999847
0,682000	0,492859	4,999847
0,683000	0,509644	4,999847
0,684000	0,521088	4,999847
0,685000	0,543365	4,999847
0,686000	0,551453	4,999847
0,687000	0,542755	4,999847
0,688000	0,547333	4,999847
0,689000	0,548248	3,194122
0,690000	0,548706	4,999847
0,691000	0,538788	3,916168
0,692000	0,538940	4,999847
0,693000	0,540161	4,999847
0,694000	0,537415	4,999847
0,695000	0,537872	4,999847
0,696000	0,541840	4,999847
0,697000	0,546265	4,999847
0,698000	0,550232	4,571686
0,699000	0,551605	3,014374
0,700000	0,553284	1,996002
0,701000	0,547943	4,769897
0,702000	0,546417	4,999847
0,703000	0,552673	4,999847
0,704000	0,555573	4,999847
0,705000	0,540161	4,999847
0,706000	0,540314	4,999847
0,707000	0,544586	4,999847
0,708000	0,547333	4,999847
0,709000	0,548706	3,826141
0,710000	0,549774	3,293304
0,711000	0,550537	4,201813
0,712000	0,549927	4,461517
0,713000	0,555267	4,999847
0,714000	0,565948	4,999847
0,715000	0,571289	4,999847
0,716000	0,570374	4,999847
0,717000	0,564880	4,999847
0,718000	0,564423	4,060364
0,719000	0,565186	3,036499
0,720000	0,566864	4,663696
0,721000	0,566254	4,999847
0,722000	0,564423	4,999847
0,723000	0,567932	4,999847
0,724000	0,567932	4,999847
0,725000	0,567932	4,999847
0,726000	0,565186	4,999847
0,727000	0,564575	4,999847
0,728000	0,563660	4,329834
0,729000	0,574493	3,452454
0,730000	0,574493	4,742279
0,731000	0,576630	3,686981
0,732000	0,574646	4,493866
0,733000	0,578003	4,999847
0,734000	0,578156	4,999847
0,735000	0,573578	4,999847
0,736000	0,570679	4,999847
0,737000	0,571747	4,999847
0,738000	0,573120	4,676056
0,739000	0,574951	2,804565
0,740000	0,578918	3,975067
0,741000	0,576172	4,999847
0,742000	0,579529	4,999847
0,743000	0,577545	4,999847
0,744000	0,575562	4,999847
0,745000	0,569611	4,999847
0,746000	0,569611	4,999847
0,747000	0,571594	4,999847
0,748000	0,571136	4,999847
0,749000	0,572052	3,224945
0,750000	0,570984	4,999847
0,751000	0,575867	2,975922
0,752000	0,577087	4,776154
0,753000	0,581360	4,999847
0,754000	0,583038	4,999847
0,755000	0,585480	4,999847
0,756000	0,580750	4,999847
0,757000	0,581665	4,884033
0,758000	0,577240	3,951416
0,759000	0,577698	2,907867
0,760000	0,574493	1,943207
0,761000	0,536957	4,837646
0,762000	0,558167	4,999847
0,763000	0,566711	4,999847
0,764000	0,576019	4,999847
0,765000	0,580139	4,999847
0,766000	0,583038	4,999847
0,767000	0,580750	4,999847
0,768000	0,570984	4,999847
0,769000	0,565796	3,210602
0,770000	0,569916	4,132080
0,771000	0,571899	3,105469
0,772000	0,578156	4,999847
0,773000	0,570221	4,999847
0,774000	0,574493	4,999847
0,775000	0,572357	4,999847
0,776000	0,573578	4,999847
0,777000	0,576630	4,999847
0,778000	0,578461	4,963226
0,779000	0,581055	2,948608
0,780000	0,580139	4,999847
0,781000	0,581360	4,999084
0,782000	0,577240	4,999847
0,783000	0,576477	4,999847
0,784000	0,576477	4,999847
0,785000	0,579529	4,999847
0,786000	0,578766	4,999847
0,787000	0,583496	4,999847
0,788000	0,579224	4,460297
0,789000	0,596924	3,778839
0,790000	0,596619	4,059448
0,791000	0,603485	3,354492
0,792000	0,603180	4,999847
0,793000	0,601044	4,999847
0,794000	0,602875	4,999847
0,795000	0,601196	4,999847
0,796000	0,603333	4,999847
0,797000	0,601349	4,999847
0,798000	0,608521	3,971558
0,799000	0,597839	3,057404
0,800000	0,605164	3,390656
0,801000	0,599060	4,954529
0,802000	0,601654	4,999847
0,803000	0,593872	4,999847
0,804000	0,596161	4,999847
0,805000	0,595551	4,999847
0,806000	0,603027	4,999847
0,807000	0,605316	4,999847
0,808000	0,604095	4,276733
0,809000	0,606537	4,039154
0,810000	0,602264	4,626007
0,811000	0,601654	2,996521
0,812000	0,580902	4,671173
0,813000	0,602722	4,999847
0,814000	0,603027	4,999847
0,815000	0,614777	4,999847
0,816000	0,603180	4,999847
0,817000	0,613861	4,999847
0,818000	0,606842	3,715668
0,819000	0,612030	3,031464
0,820000	0,608673	2,344055
0,821000	0,609894	4,754639
0,822000	0,608673	4,999847
0,823000	0,602722	4,999847
0,824000	0,608368	4,999847
0,825000	0,600739	4,999847
0,826000	0,610352	4,999847
0,827000	0,601807	4,999847
0,828000	0,616913	4,475403
0,829000	0,601501	3,948059
0,830000	0,619202	4,999847
0,831000	0,604401	4,572449
0,832000	0,615997	4,999847
0,833000	0,602722	4,999847
0,834000	0,612335	4,999847
0,835000	0,613403	4,999847
0,836000	0,612335	4,999847
0,837000	0,614471	4,903717
0,838000	0,607300	4,299469
0,839000	0,619812	2,795105
0,840000	0,610504	4,452362
0,841000	0,627289	4,528656
0,842000	0,611267	4,999847
0,843000	0,631256	4,999847
0,844000	0,607147	4,999847
0,845000	0,627594	4,999847
0,846000	0,608215	4,999847
0,847000	0,623627	4,999847
0,848000	0,614471	4,597778
0,849000	0,621796	3,521729
0,850000	0,622406	4,292297
0,851000	0,619202	4,365540
0,852000	0,627747	4,999847
0,853000	0,615997	4,999847
0,854000	0,632324	4,999847
0,855000	0,610199	4,999847
0,856000	0,636902	4,999847
0,857000	0,611572	4,398499
0,858000	0,643616	4,999847
0,859000	0,610809	2,924347
0,860000	0,636749	3,084564
0,861000	0,613708	4,676514
0,862000	0,628357	4,999847
0,863000	0,590668	4,999847
0,864000	0,597992	4,999847
0,865000	0,619965	4,999847
0,866000	0,621796	4,999847
0,867000	0,624847	4,999847
0,868000	0,619049	4,999847
0,869000	0,646057	3,998566
0,870000	0,621948	4,291687
0,871000	0,654297	4,119720
0,872000	0,615082	4,999847
0,873000	0,656433	4,999847
0,874000	0,622711	4,999847
0,875000	0,651398	4,999847
0,876000	0,632324	4,999847
0,877000	0,646362	4,826660
0,878000	0,641632	4,330444
0,879000	0,641327	2,822418
0,880000	0,645447	4,846497
0,881000	0,633087	4,999847
0,882000	0,652771	4,999847
0,883000	0,627441	4,999847
0,884000	0,661469	4,999847
0,885000	0,595245	4,999847
0,886000	0,655060	4,999847
0,887000	0,610199	4,999847
0,888000	0,664825	4,634094
0,889000	0,622406	3,496857
0,890000	0,659332	4,409332
0,891000	0,646362	4,013977
0,892000	0,659485	4,999847
0,893000	0,656891	4,999847
0,894000	0,647736	4,999847
0,895000	0,646057	4,999847
0,896000	0,639648	4,999847
0,897000	0,669250	4,999847
0,898000	0,640106	4,999847
0,899000	0,678864	2,784576
0,900000	0,636902	3,285980
0,901000	0,687408	4,999847
0,902000	0,639191	4,999847
0,903000	0,679321	4,999847
0,904000	0,631866	4,999847
0,905000	0,665436	4,999847
0,906000	0,656891	4,999847
0,907000	0,666504	4,999847
0,908000	0,671844	4,960327
0,909000	0,631409	3,510284
0,910000	0,665894	4,722595
0,911000	0,647430	3,556671
0,912000	0,685730	4,809265
0,913000	0,602722	4,999847
0,914000	0,674286	4,999847
0,915000	0,625153	4,999847
0,916000	0,696716	4,999847
0,917000	0,649109	4,999847
0,918000	0,695953	4,594269
0,919000	0,664825	2,590790
0,920000	0,686340	3,257599
0,921000	0,664520	4,935913
0,922000	0,676270	4,999847
0,923000	0,685577	4,999847
0,924000	0,670929	4,999847
0,925000	0,697479	4,999847
0,926000	0,664368	4,999847
0,927000	0,706940	4,999847
0,928000	0,653381	4,961853
0,929000	0,713806	3,413849
0,930000	0,653076	4,908142
0,931000	0,722351	4,033508
0,932000	0,668335	4,999847
0,933000	0,711670	4,999847
0,934000	0,679626	4,999847
0,935000	0,694580	4,999847
0,936000	0,686188	4,999847
0,937000	0,686646	4,999847
0,938000	0,701599	4,999847
0,939000	0,677032	2,522736
0,940000	0,712128	2,926178
0,941000	0,669098	4,395294
0,942000	0,723419	4,999847
0,943000	0,665283	4,999847
0,944000	0,734253	4,999847
0,945000	0,670624	4,999847
0,946000	0,737915	4,999847
0,947000	0,682373	4,999847
0,948000	0,723724	4,265747
0,949000	0,695953	3,194580
0,950000	0,708008	4,058228
0,951000	0,705109	3,187408
0,952000	0,695648	4,999847
0,953000	0,721436	4,999847
0,954000	0,692902	4,999847
0,955000	0,735016	4,999847
0,956000	0,680847	4,999847
0,957000	0,744476	4,999847
0,958000	0,673218	4,403534
0,959000	0,755615	2,774200
0,960000	0,680542	4,337311
0,961000	0,747833	4,204865
0,962000	0,697327	4,999847
0,963000	0,738068	4,999847
0,964000	0,716400	4,999847
0,965000	0,713654	4,999847
0,966000	0,691376	4,999847
0,967000	0,667419	4,999847
0,968000	0,719757	4,674683
0,969000	0,689697	3,381653
0,970000	0,748291	4,999847
0,971000	0,686340	3,795471
0,972000	0,762634	4,999847
0,973000	0,671692	4,999847
0,974000	0,771790	4,999847
0,975000	0,695038	4,999847
0,976000	0,766449	4,999847
0,977000	0,718689	4,774170
0,978000	0,725098	4,134979
0,979000	0,716553	2,764130
0,980000	0,719910	3,456116
0,981000	0,734253	4,429474
0,982000	0,698547	4,999847
0,983000	0,746918	4,999847
0,984000	0,702209	4,999847
0,985000	0,768738	4,999847
0,986000	0,695801	4,999847
0,987000	0,783691	4,999847
0,988000	0,700836	4,541168
0,989000	0,797577	3,489838
0,990000	0,721283	4,747467
0,991000	0,786133	2,739868
0,992000	0,738068	4,999847
0,993000	0,767365	4,756470
0,994000	0,754395	4,999847
0,995000	0,751343	4,999847
0,996000	0,767365	4,999847
0,997000	0,731812	4,999847
0,998000	0,780334	3,949127
0,999000	0,724487	2,943878

