LabVIEW Measurement	
Writer_Version	2
Reader_Version	2
Separator	Tab
Decimal_Separator	,
Multi_Headings	Yes
X_Columns	One
Time_Pref	Absolute
Operator	d.nicolai
Date	2023/11/09
Time	16:37:39,5865123999996968043
***End_of_Header***	
	
Channels	2		
Samples	1000	1000	
Date	2023/11/09	2023/11/09	
Time	16:37:41,9405123999995135052	16:37:41,9405123999995135052	
Y_Unit_Label	Volts	Volts	
X_Dimension	Time	Time	
X0	0,0000000000000000E+0	0,0000000000000000E+0	
Delta_X	0,001000	0,001000	
***End_of_Header***			
X_Value	powebox	triggerbox	Comment
0,000000	0,995331	0,865479
0,001000	1,049347	4,777832
0,002000	1,010284	4,999847
0,003000	1,040344	4,999847
0,004000	1,024628	4,999847
0,005000	1,032562	4,999847
0,006000	1,038513	4,999847
0,007000	1,024933	4,999847
0,008000	1,051483	4,999847
0,009000	1,018372	4,147186
0,010000	1,063385	4,944763
0,011000	1,011963	3,845673
0,012000	1,074982	4,042664
0,013000	1,006927	4,999847
0,014000	1,083984	4,999847
0,015000	1,013947	4,999847
0,016000	1,072998	4,999847
0,017000	1,032562	4,999847
0,018000	1,061096	4,999847
0,019000	1,050110	3,174591
0,020000	1,051331	3,195801
0,021000	1,066895	4,999847
0,022000	1,042023	4,999847
0,023000	1,082611	4,999847
0,024000	1,034393	4,999847
0,025000	1,097412	4,999847
0,026000	1,026459	4,999847
0,027000	1,111603	4,999847
0,028000	1,019135	4,999847
0,029000	1,113129	3,876495
0,030000	1,036835	3,435211
0,031000	1,097565	4,999847
0,032000	1,058960	4,118042
0,033000	1,083221	4,999847
0,034000	1,079407	4,999847
0,035000	1,070404	4,999847
0,036000	1,098328	4,999847
0,037000	1,058960	4,999847
0,038000	1,116028	4,999847
0,039000	1,048737	3,346252
0,040000	1,132965	2,575684
0,041000	1,039124	4,999847
0,042000	1,148834	4,999847
0,043000	1,036224	4,999847
0,044000	1,139526	4,999847
0,045000	1,062317	4,999847
0,046000	1,120300	4,999847
0,047000	1,087494	4,999847
0,048000	1,103668	4,999847
0,049000	1,110687	3,618469
0,050000	1,087952	3,153687
0,051000	1,132050	3,537140
0,052000	1,074524	4,406281
0,053000	1,151886	4,999847
0,054000	1,062469	4,999847
0,055000	1,170502	4,999847
0,056000	1,051483	4,999847
0,057000	1,185150	4,999847
0,058000	1,060181	4,971008
0,059000	1,163330	2,939911
0,060000	1,090240	3,704071
0,061000	1,141357	4,722900
0,062000	1,118164	4,910736
0,063000	1,122284	4,999847
0,064000	1,144104	4,999847
0,065000	1,104736	4,999847
0,066000	1,167755	4,999847
0,067000	1,089630	4,999847
0,068000	1,189575	4,999847
0,069000	1,075592	3,708954
0,070000	1,210175	2,899933
0,071000	1,063385	4,999847
0,072000	1,211243	4,019470
0,073000	1,087036	4,999847
0,074000	1,186676	4,999847
0,075000	1,121674	4,999847
0,076000	1,162567	4,999847
0,077000	1,152344	4,999847
0,078000	1,140594	4,990234
0,079000	1,180573	2,982941
0,080000	1,121826	3,479156
0,081000	1,205902	4,999847
0,082000	1,104126	4,873352
0,083000	1,230011	4,999847
0,084000	1,089935	4,999847
0,085000	1,251678	4,999847
0,086000	1,081238	4,999847
0,087000	1,238403	4,999847
0,088000	1,118927	4,999847
0,089000	1,208038	3,562317
0,090000	1,154785	3,645325
0,091000	1,181335	4,558868
0,092000	1,188049	4,367828
0,093000	1,157684	4,999847
0,094000	1,217804	4,999847
0,095000	1,136932	4,999847
0,096000	1,245728	4,999847
0,097000	1,118469	4,999847
0,098000	1,267700	4,999847
0,099000	1,363068	3,691406
0,100000	1,246490	3,392792
0,101000	1,242523	4,534760
0,102000	1,166534	4,999847
0,103000	1,251068	4,999847
0,104000	1,137390	4,999847
0,105000	1,275177	4,999847
0,106000	1,117554	4,999847
0,107000	1,300049	4,999847
0,108000	1,102295	4,999847
0,109000	1,292877	3,535004
0,110000	1,141968	4,999847
0,111000	1,255188	4,003601
0,112000	1,183929	4,999847
0,113000	1,224976	4,999847
0,114000	1,222687	4,999847
0,115000	1,197510	4,999847
0,116000	1,257629	4,999847
0,117000	1,172638	4,999847
0,118000	1,289062	4,592438
0,119000	1,150970	2,955322
0,120000	1,317749	4,999847
0,121000	1,131134	3,504181
0,122000	1,343689	4,999847
0,123000	1,130676	4,999847
0,124000	1,315155	4,999847
0,125000	1,178741	4,999847
0,126000	1,277161	4,999847
0,127000	1,222839	4,999847
0,128000	1,243896	4,999847
0,129000	1,262970	3,580322
0,130000	1,214294	4,519348
0,131000	1,298218	3,832245
0,132000	1,188354	3,485565
0,133000	1,332092	4,999847
0,134000	1,165924	4,999847
0,135000	1,361542	4,999847
0,136000	1,145172	4,999847
0,137000	1,378632	4,999847
0,138000	1,166992	4,999847
0,139000	1,336517	3,932800
0,140000	1,218262	3,525848
0,141000	1,296997	4,724731
0,142000	1,264343	4,645844
0,143000	1,262207	4,999847
0,144000	1,306000	4,999847
0,145000	1,231842	4,999847
0,146000	1,342773	4,999847
0,147000	1,205292	4,999847
0,148000	1,376801	4,999847
0,149000	1,181488	4,592590
0,150000	1,407318	4,717407
0,151000	1,160431	2,718811
0,152000	1,402283	4,999847
0,153000	1,207428	4,999847
0,154000	1,356659	4,999847
0,155000	1,260681	4,999847
0,156000	1,316223	4,999847
0,157000	1,307678	4,999847
0,158000	1,280823	4,999847
0,159000	1,350555	3,473816
0,160000	1,249847	4,771881
0,161000	1,388855	3,134766
0,162000	1,222839	4,817505
0,163000	1,423035	4,999847
0,164000	1,199036	4,999847
0,165000	1,454926	4,999847
0,166000	1,194305	4,999847
0,167000	1,424255	4,999847
0,168000	1,251068	4,923859
0,169000	1,375580	4,667206
0,170000	1,305389	4,012909
0,171000	1,336975	3,446655
0,172000	1,353455	3,843994
0,173000	1,301117	4,999847
0,174000	1,397552	4,999847
0,175000	1,269989	4,999847
0,176000	1,436462	4,999847
0,177000	1,242981	4,999847
0,178000	1,471863	4,724426
0,179000	1,219330	4,276276
0,180000	1,495667	3,438416
0,181000	1,240692	4,794159
0,182000	1,446075	4,523926
0,183000	1,301575	4,999847
0,184000	1,399994	4,999847
0,185000	1,355896	4,999847
0,186000	1,359863	4,999847
0,187000	1,404724	4,999847
0,188000	1,324310	4,643555
0,189000	1,448517	4,062958
0,190000	1,293182	4,240417
0,191000	1,488037	3,983307
0,192000	1,266937	4,360962
0,193000	1,523285	4,999847
0,194000	1,243439	4,999847
0,195000	1,522217	4,999847
0,196000	1,293335	4,999847
0,197000	1,470184	4,999847
0,198000	1,354828	4,665833
0,199000	1,424561	3,614960
0,200000	1,409302	3,017883
0,201000	1,382751	4,282074
0,202000	1,457214	4,999847
0,203000	1,349792	4,999847
0,204000	1,501770	4,999847
0,205000	1,320343	4,999847
0,206000	1,541595	4,999847
0,207000	1,294708	4,999847
0,208000	1,577301	4,999847
0,209000	1,285553	4,999847
0,210000	1,548004	3,279114
0,211000	1,350861	4,751434
0,212000	1,496735	3,712921
0,213000	1,411896	4,999847
0,214000	1,452332	4,999847
0,215000	1,465912	4,999847
0,216000	1,413574	4,999847
0,217000	1,514587	4,999847
0,218000	1,380005	4,569092
0,219000	1,558228	3,883209
0,220000	1,351013	3,274384
0,221000	1,597137	4,877625
0,222000	1,326599	4,625702
0,223000	1,626282	4,999847
0,224000	1,344910	4,999847
0,225000	1,575317	4,999847
0,226000	1,412354	4,999847
0,227000	1,525574	4,999847
0,228000	1,472321	4,660492
0,229000	1,480255	4,994049
0,230000	1,525269	4,419403
0,231000	1,445465	2,751160
0,232000	1,573792	4,011536
0,233000	1,413422	4,999847
0,234000	1,616516	4,999847
0,235000	1,386261	4,999847
0,236000	1,654968	4,999847
0,237000	1,362762	4,999847
0,238000	1,658783	4,298096
0,239000	1,410522	3,909454
0,240000	1,604767	4,233093
0,241000	1,476746	3,501587
0,242000	1,556854	4,999847
0,243000	1,535339	4,999847
0,244000	1,515350	4,999847
0,245000	1,587830	4,999847
0,246000	1,480408	4,999847
0,247000	1,634369	4,999847
0,248000	1,450348	4,944458
0,249000	1,676178	4,732208
0,250000	1,424103	2,932129
0,251000	1,713867	4,832916
0,252000	1,410675	4,719391
0,253000	1,688232	4,999847
0,254000	1,478119	4,999847
0,255000	1,635742	4,999847
0,256000	1,542511	4,999847
0,257000	1,590271	4,999847
0,258000	1,599121	4,587860
0,259000	1,551361	4,381561
0,260000	1,650543	2,899780
0,261000	1,517487	4,999847
0,262000	1,696014	4,999847
0,263000	1,488647	4,999847
0,264000	1,736603	4,999847
0,265000	1,464233	4,999847
0,266000	1,769562	4,999847
0,267000	1,477051	4,999847
0,268000	1,718750	4,999847
0,269000	1,546478	4,999847
0,270000	1,668549	3,297119
0,271000	1,609192	4,677582
0,272000	1,625214	3,450623
0,273000	1,663971	4,999847
0,274000	1,587830	4,999847
0,275000	1,713257	4,999847
0,276000	1,555786	4,999847
0,277000	1,757965	4,999847
0,278000	1,528168	4,999847
0,279000	1,796722	3,699799
0,280000	1,504669	3,710632
0,281000	1,805420	4,888611
0,282000	1,547394	4,762726
0,283000	1,750793	4,999847
0,284000	1,615143	4,999847
0,285000	1,702576	4,999847
0,286000	1,675262	4,999847
0,287000	1,661072	4,999847
0,288000	1,728973	4,999847
0,289000	1,625977	3,968811
0,290000	1,776886	3,145447
0,291000	1,595612	4,999847
0,292000	1,819916	4,337311
0,293000	1,569519	4,999847
0,294000	1,858673	4,999847
0,295000	1,551208	4,999847
0,296000	1,838837	4,999847
0,297000	1,618500	4,999847
0,298000	1,786346	4,999847
0,299000	1,684570	3,919983
0,300000	1,740875	3,551483
0,301000	1,743164	4,357300
0,302000	1,702118	4,999847
0,303000	1,795044	4,999847
0,304000	1,668091	4,999847
0,305000	1,841431	4,999847
0,306000	1,639862	4,999847
0,307000	1,884918	4,999847
0,308000	1,615448	4,999847
0,309000	1,925049	4,896698
0,310000	1,622772	2,773743
0,311000	1,880188	4,904785
0,312000	1,692963	4,257507
0,313000	1,830444	4,999847
0,314000	1,756439	4,999847
0,315000	1,787109	4,999847
0,316000	1,812897	4,999847
0,317000	1,749573	4,999847
0,318000	1,863403	4,999847
0,319000	1,717377	4,458160
0,320000	1,910858	3,392944
0,321000	1,689911	4,047089
0,322000	1,956787	4,728546
0,323000	1,665955	4,999847
0,324000	1,976776	4,999847
0,325000	1,701202	4,999847
0,326000	1,928558	4,999847
0,327000	1,770020	4,999847
0,328000	1,882935	4,999847
0,329000	1,830292	3,932037
0,330000	1,841888	3,814240
0,331000	1,882019	4,900818
0,332000	1,803131	4,283905
0,333000	1,937103	4,999847
0,334000	1,772766	4,999847
0,335000	1,988373	4,999847
0,336000	1,746216	4,999847
0,337000	2,036438	4,999847
0,338000	1,723328	4,999847
0,339000	2,030029	3,773346
0,340000	1,786804	4,599915
0,341000	1,984863	4,279327
0,342000	1,851654	4,636536
0,343000	1,943970	4,999847
0,344000	1,912231	4,999847
0,345000	1,906433	4,999847
0,346000	1,969604	4,999847
0,347000	1,872101	4,999847
0,348000	2,024841	4,999847
0,349000	1,842041	4,281006
0,350000	2,077789	4,163971
0,351000	1,814270	4,324951
0,352000	2,128448	3,569183
0,353000	1,813354	4,999847
0,354000	2,094727	4,999847
0,355000	1,881409	4,999847
0,356000	2,053528	4,999847
0,357000	1,948395	4,999847
0,358000	2,016602	4,999847
0,359000	2,011566	3,852386
0,360000	1,982727	3,002319
0,361000	2,071533	3,762665
0,362000	1,951599	4,945374
0,363000	2,129517	4,999847
0,364000	1,923828	4,999847
0,365000	2,183380	4,999847
0,366000	1,898651	4,999847
0,367000	2,213898	4,999847
0,368000	1,925201	4,999847
0,369000	2,171478	4,624176
0,370000	1,995239	3,147125
0,371000	2,131653	4,842987
0,372000	2,060394	3,229065
0,373000	2,093506	4,999847
0,374000	2,122345	4,999847
0,375000	2,060089	4,999847
0,376000	2,180939	4,999847
0,377000	2,028503	4,999847
0,378000	2,234650	4,999847
0,379000	1,999207	3,535919
0,380000	2,280731	4,012146
0,381000	1,970215	4,098206
0,382000	2,270050	4,174194
0,383000	2,025299	4,999847
0,384000	2,220612	4,999847
0,385000	2,091064	4,999847
0,386000	2,177429	4,999847
0,387000	2,153473	4,999847
0,388000	2,138367	4,999847
0,389000	2,211761	3,885345
0,390000	2,102509	4,229279
0,391000	1,868134	4,999847
0,392000	1,743011	3,446655
0,393000	1,695251	4,999847
0,394000	1,676483	4,999847
0,395000	1,669159	4,999847
0,396000	1,666412	4,999847
0,397000	1,665497	4,999847
0,398000	1,664886	4,636841
0,399000	1,664276	3,453369
0,400000	1,664276	4,369965
0,401000	1,663971	3,860931
0,402000	1,663818	4,484558
0,403000	1,663971	4,999847
0,404000	1,663513	4,999847
0,405000	1,663361	4,999847
0,406000	1,663513	4,999847
0,407000	1,663666	4,999847
0,408000	1,663513	4,999847
0,409000	1,663208	4,339600
0,410000	1,662140	3,386383
0,411000	1,663208	4,057770
0,412000	1,663055	4,064789
0,413000	1,309967	4,999847
0,414000	1,099854	4,999847
0,415000	1,055756	4,999847
0,416000	0,998535	4,999847
0,417000	1,025391	4,999847
0,418000	0,984344	4,730377
0,419000	1,017456	4,286346
0,420000	0,991669	3,033295
0,421000	1,011658	4,564819
0,422000	1,001282	4,999847
0,423000	1,006927	4,999847
0,424000	1,011047	4,999847
0,425000	1,002655	4,999847
0,426000	1,020966	4,999847
0,427000	0,998230	4,999847
0,428000	1,029816	4,999847
0,429000	0,994873	4,385681
0,430000	1,039276	3,436890
0,431000	0,991669	3,820648
0,432000	1,046753	3,950195
0,433000	0,996399	4,999847
0,434000	1,038666	4,999847
0,435000	1,010132	4,999847
0,436000	1,032104	4,999847
0,437000	1,023560	4,999847
0,438000	1,024780	4,421844
0,439000	1,035461	4,265594
0,440000	1,018677	4,115906
0,441000	1,048584	3,296814
0,442000	1,013031	4,727478
0,443000	1,059723	4,999847
0,444000	1,007233	4,999847
0,445000	1,069946	4,999847
0,446000	1,002197	4,999847
0,447000	1,072540	4,999847
0,448000	1,015320	4,913483
0,449000	1,062012	3,883972
0,450000	1,033173	3,903351
0,451000	1,051636	4,673615
0,452000	1,048889	3,868408
0,453000	1,042633	4,999847
0,454000	1,063995	4,999847
0,455000	1,034546	4,999847
0,456000	1,078796	4,999847
0,457000	1,027069	4,999847
0,458000	1,092682	4,510498
0,459000	1,020050	3,599701
0,460000	1,105652	2,268829
0,461000	1,018372	4,397430
0,462000	1,099701	4,999847
0,463000	1,039429	4,999847
0,464000	1,085663	4,999847
0,465000	1,059875	4,999847
0,466000	1,072845	4,999847
0,467000	1,079102	4,999847
0,468000	1,061554	4,732971
0,469000	1,096497	4,535980
0,470000	1,051178	4,999847
0,471000	1,112671	3,923950
0,472000	1,041260	3,892365
0,473000	1,128387	4,999847
0,474000	1,032715	4,999847
0,475000	1,141205	4,999847
0,476000	1,039276	4,999847
0,477000	1,124573	4,999847
0,478000	1,064606	4,189911
0,479000	1,107635	4,405823
0,480000	1,087952	3,684387
0,481000	1,091614	4,807129
0,482000	1,109772	4,999847
0,483000	1,077881	4,999847
0,484000	1,130066	4,999847
0,485000	1,065521	4,999847
0,486000	1,148376	4,999847
0,487000	1,054840	4,999847
0,488000	1,166840	4,554138
0,489000	1,045227	4,754639
0,490000	1,170044	3,753204
0,491000	1,065216	4,939880
0,492000	1,148682	4,922791
0,493000	1,093597	4,999847
0,494000	1,128387	4,999847
0,495000	1,119537	4,999847
0,496000	1,110687	4,999847
0,497000	1,143646	4,999847
0,498000	1,094360	4,421082
0,499000	1,165771	4,673920
0,500000	1,080627	4,228363
0,501000	1,186371	3,296356
0,502000	1,067505	4,999847
0,503000	1,205444	4,999847
0,504000	1,060028	4,999847
0,505000	1,195374	4,999847
0,506000	1,092377	4,999847
0,507000	1,170197	4,999847
0,508000	1,124268	4,999847
0,509000	1,147614	4,773865
0,510000	1,153107	3,062897
0,511000	1,127319	4,999847
0,512000	1,179504	4,472504
0,513000	1,109772	4,826355
0,514000	1,203918	4,999847
0,515000	1,093750	4,999847
0,516000	1,226349	4,999847
0,517000	1,079559	4,999847
0,518000	1,245880	4,985046
0,519000	1,086273	4,117889
0,520000	1,219177	3,280029
0,521000	1,123657	2,968140
0,522000	1,191559	4,999847
0,523000	1,157990	4,999847
0,524000	1,166382	4,999847
0,525000	1,188965	4,999847
0,526000	1,144562	4,999847
0,527000	1,217804	4,999847
0,528000	1,125031	4,999847
0,529000	1,243591	4,270630
0,530000	1,107330	3,248749
0,531000	1,267242	4,999847
0,532000	1,091614	3,660431
0,533000	1,274414	4,999847
0,534000	1,117096	4,999847
0,535000	1,305847	4,999847
0,536000	1,372986	4,999847
0,537000	1,403809	4,999847
0,538000	1,185760	4,750977
0,539000	1,293182	3,467407
0,540000	1,116638	3,664246
0,541000	1,297760	4,550781
0,542000	1,104889	4,999847
0,543000	1,275024	4,999847
0,544000	1,146698	4,999847
0,545000	1,240692	4,999847
0,546000	1,186523	4,999847
0,547000	1,211090	4,999847
0,548000	1,223145	4,999847
0,549000	1,184235	4,325562
0,550000	1,255493	2,940063
0,551000	1,160278	4,999847
0,552000	1,285858	4,244385
0,553000	1,139984	4,999847
0,554000	1,313324	4,999847
0,555000	1,121521	4,999847
0,556000	1,333618	4,999847
0,557000	1,135864	4,999847
0,558000	1,296539	4,675751
0,559000	1,183014	4,343719
0,560000	1,260834	3,077393
0,561000	1,225128	4,796906
0,562000	1,229248	4,999847
0,563000	1,263123	4,999847
0,564000	1,201019	4,999847
0,565000	1,298218	4,999847
0,566000	1,176300	4,999847
0,567000	1,329041	4,999847
0,568000	1,154480	4,999847
0,569000	1,357574	4,999847
0,570000	1,135101	3,114624
0,571000	1,358948	4,721680
0,572000	1,172943	4,286194
0,573000	1,316833	4,999847
0,574000	1,221771	4,999847
0,575000	1,279755	4,999847
0,576000	1,265717	4,999847
0,577000	1,246796	4,999847
0,578000	1,305237	4,819794
0,579000	1,217651	4,467926
0,580000	1,340942	4,345093
0,581000	1,192017	3,298645
0,582000	1,373749	4,999847
0,583000	1,169586	4,999847
0,584000	1,403046	4,999847
0,585000	1,159363	4,999847
0,586000	1,381226	4,999847
0,587000	1,212921	4,999847
0,588000	1,336975	4,999847
0,589000	1,263428	4,644928
0,590000	1,298370	3,213196
0,591000	1,308746	4,668274
0,592000	1,265106	3,840790
0,593000	1,349640	4,999847
0,594000	1,235046	4,999847
0,595000	1,386719	4,999847
0,596000	1,209259	4,999847
0,597000	1,419983	4,999847
0,598000	1,186676	4,999847
0,599000	1,446228	3,428192
0,600000	1,199646	3,621216
0,601000	1,401825	3,398132
0,602000	1,257019	4,669037
0,603000	1,357880	4,999847
0,604000	1,308746	4,999847
0,605000	1,319122	4,999847
0,606000	1,354523	4,999847
0,607000	1,284332	4,999847
0,608000	1,396637	4,999847
0,609000	1,254730	4,230804
0,610000	1,434174	2,950439
0,611000	1,228790	4,511261
0,612000	1,468506	3,956909
0,613000	1,205902	4,999847
0,614000	1,473541	4,999847
0,615000	1,246490	4,999847
0,616000	1,423950	4,999847
0,617000	1,304779	4,999847
0,618000	1,379242	4,999847
0,619000	1,357574	3,756714
0,620000	1,340485	3,755951
0,621000	1,404724	4,999847
0,622000	1,306763	4,897919
0,623000	1,446533	4,999847
0,624000	1,277161	4,999847
0,625000	1,484833	4,999847
0,626000	1,251221	4,999847
0,627000	1,518555	4,999847
0,628000	1,236420	4,999847
0,629000	1,497650	4,157562
0,630000	1,297913	3,728638
0,631000	1,447296	4,270325
0,632000	1,356812	3,735352
0,633000	1,403503	4,999847
0,634000	1,409760	4,999847
0,635000	1,365204	4,999847
0,636000	1,457062	4,999847
0,637000	1,331787	4,999847
0,638000	1,497040	4,999847
0,639000	1,301422	3,918152
0,640000	1,537170	3,497467
0,641000	1,278229	4,470367
0,642000	1,569977	4,726105
0,643000	1,288605	4,999847
0,644000	1,522369	4,999847
0,645000	1,354065	4,999847
0,646000	1,473083	4,999847
0,647000	1,412811	4,999847
0,648000	1,430206	4,999847
0,649000	1,465454	4,539185
0,650000	1,393585	3,175659
0,651000	1,512756	4,826965
0,652000	1,361084	3,437042
0,653000	1,554871	4,999847
0,654000	1,333313	4,999847
0,655000	1,592407	4,999847
0,656000	1,309357	4,999847
0,657000	1,603241	4,999847
0,658000	1,348877	4,914398
0,659000	1,549988	3,595734
0,660000	1,414490	4,312439
0,661000	1,501770	4,999847
0,662000	1,472626	4,858704
0,663000	1,460876	4,999847
0,664000	1,524200	4,999847
0,665000	1,424561	4,999847
0,666000	1,571198	4,999847
0,667000	1,394196	4,999847
0,668000	1,612396	4,999847
0,669000	1,367493	4,205170
0,670000	1,649933	4,702301
0,671000	1,348572	4,549408
0,672000	1,632233	4,041138
0,673000	1,413422	4,999847
0,674000	1,579132	4,999847
0,675000	1,477509	4,999847
0,676000	1,533508	4,999847
0,677000	1,534271	4,999847
0,678000	1,493835	4,765015
0,679000	1,585388	4,010315
0,680000	1,459808	3,476105
0,681000	1,630554	4,429932
0,682000	1,430359	4,520569
0,683000	1,671448	4,999847
0,684000	1,404877	4,999847
0,685000	1,707611	4,999847
0,686000	1,411285	4,999847
0,687000	1,661530	4,999847
0,688000	1,480103	4,999847
0,689000	1,610413	4,406738
0,690000	1,542816	3,310852
0,691000	1,566772	4,042358
0,692000	1,597748	4,242554
0,693000	1,528931	4,999847
0,694000	1,647797	4,999847
0,695000	1,496277	4,999847
0,696000	1,691742	4,999847
0,697000	1,468201	4,999847
0,698000	1,731262	4,925079
0,699000	1,444550	3,230743
0,700000	1,746826	3,286133
0,701000	1,479797	4,804230
0,702000	1,692352	4,999847
0,703000	1,547546	4,999847
0,704000	1,643982	4,999847
0,705000	1,608276	4,999847
0,706000	1,601868	4,999847
0,707000	1,661987	4,999847
0,708000	1,565704	4,999847
0,709000	1,710052	4,422150
0,710000	1,534882	3,497772
0,711000	1,753082	4,999847
0,712000	1,508484	4,518890
0,713000	1,791687	4,999847
0,714000	1,486511	4,999847
0,715000	1,778259	4,999847
0,716000	1,549683	4,999847
0,717000	1,724701	4,999847
0,718000	1,615295	4,999847
0,719000	1,678162	3,263702
0,720000	1,674347	4,460754
0,721000	1,638489	3,784332
0,722000	1,726379	4,999847
0,723000	1,604004	4,999847
0,724000	1,772766	4,999847
0,725000	1,574707	4,999847
0,726000	1,815033	4,999847
0,727000	1,549377	4,999847
0,728000	1,852722	4,999847
0,729000	1,549683	4,544678
0,730000	1,810303	3,541412
0,731000	1,620178	4,999847
0,732000	1,759644	3,829956
0,733000	1,683807	4,999847
0,734000	1,715088	4,999847
0,735000	1,740570	4,999847
0,736000	1,677704	4,999847
0,737000	1,791382	4,999847
0,738000	1,645355	4,682312
0,739000	1,836548	3,589935
0,740000	1,617737	4,706879
0,741000	1,876068	3,699341
0,742000	1,593475	4,683838
0,743000	1,901703	4,999847
0,744000	1,622620	4,999847
0,745000	1,850128	4,999847
0,746000	1,692657	4,999847
0,747000	1,801758	4,999847
0,748000	1,754608	4,999847
0,749000	1,759796	4,808807
0,750000	1,809235	3,813934
0,751000	1,723633	4,700165
0,752000	1,858368	4,180298
0,753000	1,692810	4,999847
0,754000	1,904755	4,999847
0,755000	1,666260	4,999847
0,756000	1,949158	4,999847
0,757000	1,642456	4,999847
0,758000	1,947174	4,999847
0,759000	1,701202	3,983459
0,760000	1,897888	4,223633
0,761000	1,767273	4,136505
0,762000	1,852417	4,999847
0,763000	1,826782	4,999847
0,764000	1,811829	4,999847
0,765000	1,880646	4,999847
0,766000	1,777039	4,999847
0,767000	1,931610	4,999847
0,768000	1,746979	4,916534
0,769000	1,980438	4,453583
0,770000	1,720886	3,583984
0,771000	2,027435	3,560638
0,772000	1,714172	4,322052
0,773000	1,998749	4,999847
0,774000	1,783447	4,999847
0,775000	1,953583	4,999847
0,776000	1,846619	4,999847
0,777000	1,912079	4,999847
0,778000	1,905670	4,702148
0,779000	1,874847	4,201508
0,780000	1,961670	3,577728
0,781000	1,840973	3,161469
0,782000	2,015381	4,999847
0,783000	1,811218	4,999847
0,784000	2,066650	4,999847
0,785000	1,785431	4,999847
0,786000	2,102661	4,999847
0,787000	1,806030	4,999847
0,788000	2,060242	4,999847
0,789000	1,873474	4,882660
0,790000	2,019501	3,378754
0,791000	1,938171	4,164886
0,792000	1,982117	4,290466
0,793000	1,999969	4,999847
0,794000	1,948395	4,999847
0,795000	2,058716	4,999847
0,796000	1,917877	4,999847
0,797000	2,114868	4,999847
0,798000	1,890564	4,417267
0,799000	2,168121	3,700104
0,800000	1,865234	4,207611
0,801000	2,178650	4,135284
0,802000	1,914978	4,999847
0,803000	2,136993	4,999847
0,804000	1,984406	4,999847
0,805000	2,098236	4,999847
0,806000	2,050323	4,999847
0,807000	2,062836	4,999847
0,808000	2,111969	4,767456
0,809000	2,029877	4,999847
0,810000	2,170105	3,306885
0,811000	1,999969	4,448853
0,812000	2,223816	4,981995
0,813000	1,971893	4,999847
0,814000	2,271271	4,999847
0,815000	1,956177	4,999847
0,816000	2,243347	4,999847
0,817000	2,022400	4,999847
0,818000	2,197876	4,741364
0,819000	2,088165	4,597931
0,820000	2,156219	3,637085
0,821000	2,149506	4,940643
0,822000	2,118530	4,999847
0,823000	2,207336	4,999847
0,824000	2,083282	4,999847
0,825000	2,259827	4,999847
0,826000	2,051239	4,999847
0,827000	2,301636	4,999847
0,828000	2,022247	4,999847
0,829000	1,819916	4,569397
0,830000	1,724854	2,983093
0,831000	1,688232	4,465332
0,832000	1,673889	4,423828
0,833000	1,668396	4,999847
0,834000	1,666412	4,999847
0,835000	1,665192	4,999847
0,836000	1,664886	4,999847
0,837000	1,664581	4,999847
0,838000	1,664581	4,999847
0,839000	1,664276	4,671783
0,840000	1,664581	3,462524
0,841000	1,664124	3,529968
0,842000	1,664124	4,999847
0,843000	1,661530	4,999847
0,844000	1,662445	4,999847
0,845000	1,663208	4,999847
0,846000	1,663361	4,999847
0,847000	1,663666	4,999847
0,848000	1,663513	4,999847
0,849000	1,663361	4,999847
0,850000	1,480865	3,931122
0,851000	1,189423	4,999847
0,852000	1,063080	4,988861
0,853000	1,025238	4,999847
0,854000	1,010437	4,999847
0,855000	0,998230	4,999847
0,856000	1,009827	4,999847
0,857000	0,991821	4,999847
0,858000	1,016693	4,708557
0,859000	0,988007	4,266968
0,860000	1,024475	3,793335
0,861000	0,985260	3,763275
0,862000	1,031799	4,999847
0,863000	0,987701	4,999847
0,864000	1,026917	4,999847
0,865000	0,999756	4,999847
0,866000	1,020508	4,999847
0,867000	1,011963	4,999847
0,868000	1,015167	4,999847
0,869000	1,023254	4,137878
0,870000	1,009369	3,065033
0,871000	1,033783	4,999847
0,872000	1,004639	4,351959
0,873000	1,044464	4,999847
0,874000	1,000519	4,999847
0,875000	1,054840	4,999847
0,876000	0,996857	4,999847
0,877000	1,059570	4,999847
0,878000	1,005554	4,999847
0,879000	1,049805	3,739166
0,880000	1,020660	3,047943
0,881000	1,040802	4,834137
0,882000	1,035309	4,999847
0,883000	1,032562	4,999847
0,884000	1,049500	4,999847
0,885000	1,025391	4,999847
0,886000	1,062469	4,999847
0,887000	1,018829	4,999847
0,888000	1,075439	4,999847
0,889000	1,012726	4,751282
0,890000	1,086884	3,317871
0,891000	1,008301	4,999847
0,892000	1,084900	4,399872
0,893000	1,026459	4,999847
0,894000	1,072235	4,999847
0,895000	1,045685	4,999847
0,896000	1,061249	4,999847
0,897000	1,063232	4,999847
0,898000	1,050873	4,999847
0,899000	1,080017	3,400116
0,900000	1,041870	3,452759
0,901000	1,095581	3,472900
0,902000	1,033020	4,999847
0,903000	1,110382	4,999847
0,904000	1,025696	4,999847
0,905000	1,124420	4,999847
0,906000	1,027985	4,999847
0,907000	1,111298	4,999847
0,908000	1,051636	4,999847
0,909000	1,095581	4,810486
0,910000	1,073456	3,722992
0,911000	1,081085	4,999847
0,912000	1,094055	4,260101
0,913000	1,068573	4,999847
0,914000	1,112823	4,999847
0,915000	1,056824	4,999847
0,916000	1,130676	4,999847
0,917000	1,046753	4,999847
0,918000	1,147308	4,999847
0,919000	1,037903	4,306030
0,920000	1,155548	3,675842
0,921000	1,051941	4,556580
0,922000	1,135406	4,999847
0,923000	1,078796	4,999847
0,924000	1,116943	4,999847
0,925000	1,103668	4,999847
0,926000	1,100311	4,999847
0,927000	1,126709	4,999847
0,928000	1,085052	4,999847
0,929000	1,148071	4,802551
0,930000	1,072083	3,158875
0,931000	1,167755	4,999847
0,932000	1,060333	4,680786
0,933000	1,185608	4,999847
0,934000	1,050415	4,999847
0,935000	1,182098	4,999847
0,936000	1,079254	4,999847
0,937000	1,157990	4,999847
0,938000	1,109314	4,999847
0,939000	1,136932	3,959351
0,940000	1,136169	4,046631
0,941000	1,118011	4,688110
0,942000	1,161652	4,999847
0,943000	1,101074	4,999847
0,944000	1,185150	4,999847
0,945000	1,087341	4,999847
0,946000	1,206665	4,999847
0,947000	1,072845	4,999847
0,948000	1,226654	4,999847
0,949000	1,073761	4,391937
0,950000	1,206665	4,150848
0,951000	1,108856	4,081573
0,952000	1,179962	4,224548
0,953000	1,141663	4,999847
0,954000	1,156616	4,999847
0,955000	1,171875	4,999847
0,956000	1,135406	4,999847
0,957000	1,198883	4,999847
0,958000	1,116791	4,665833
0,959000	1,224213	3,861847
0,960000	1,100159	4,202118
0,961000	1,247101	3,699036
0,962000	1,085205	4,999847
0,963000	1,260376	4,999847
0,964000	1,102905	4,999847
0,965000	1,229553	4,999847
0,966000	1,141357	4,999847
0,967000	1,199951	4,999847
0,968000	1,176605	4,999847
0,969000	1,174469	3,570251
0,970000	1,208954	3,769073
0,971000	1,151581	4,557495
0,972000	1,235046	4,214935
0,973000	1,349182	4,999847
0,974000	1,391907	4,999847
0,975000	1,410522	4,999847
0,976000	1,240082	4,999847
0,977000	1,263428	4,999847
0,978000	1,152344	4,999847
0,979000	1,266785	3,216248
0,980000	1,124268	4,054718
0,981000	1,288605	4,372253
0,982000	1,105804	4,999847
0,983000	1,302185	4,999847
0,984000	1,125336	4,999847
0,985000	1,267242	4,999847
0,986000	1,168060	4,999847
0,987000	1,234436	4,999847
0,988000	1,207428	4,999847
0,989000	1,205139	4,999847
0,990000	1,242828	3,769531
0,991000	1,179504	4,754486
0,992000	1,275330	4,136200
0,993000	1,156464	4,999847
0,994000	1,304626	4,999847
0,995000	1,136627	4,999847
0,996000	1,331635	4,999847
0,997000	1,118622	4,999847
0,998000	1,327362	4,802704
0,999000	1,159973	4,295044

