LabVIEW Measurement	
Writer_Version	2
Reader_Version	2
Separator	Tab
Decimal_Separator	,
Multi_Headings	Yes
X_Columns	One
Time_Pref	Absolute
Operator	d.nicolai
Date	2023/11/09
Time	16:37:39,5865123999996968043
***End_of_Header***	
	
Channels	2		
Samples	1000	1000	
Date	2023/11/09	2023/11/09	
Time	16:38:08,1585125999999184201	16:38:08,1585125999999184201	
Y_Unit_Label	Volts	Volts	
X_Dimension	Time	Time	
X0	0,0000000000000000E+0	0,0000000000000000E+0	
Delta_X	0,001000	0,001000	
***End_of_Header***			
X_Value	powebox	triggerbox	Comment
0,000000	1,663208	1,912384
0,001000	1,663818	4,999847
0,002000	1,663818	4,999847
0,003000	1,663666	4,999847
0,004000	1,663208	4,999847
0,005000	1,575775	4,994354
0,006000	1,238098	3,813019
0,007000	1,067657	4,043579
0,008000	1,040192	3,979340
0,009000	1,002960	4,999847
0,010000	1,007996	4,999847
0,011000	1,000671	4,999847
0,012000	0,999756	4,999847
0,013000	1,008301	4,999847
0,014000	0,995483	4,714203
0,015000	1,016693	4,692230
0,016000	0,992126	3,237915
0,017000	1,025238	2,723389
0,018000	0,989227	4,796295
0,019000	1,033020	4,999847
0,020000	0,987091	4,999847
0,021000	1,035309	4,999847
0,022000	0,996857	4,999847
0,023000	1,028290	4,999847
0,024000	1,009369	4,999847
0,025000	1,022034	4,629517
0,026000	1,021576	3,644867
0,027000	1,016235	4,614105
0,028000	1,033173	4,918671
0,029000	1,010437	4,999847
0,030000	1,044464	4,999847
0,031000	1,005249	4,999847
0,032000	1,055145	4,999847
0,033000	1,000671	4,999847
0,034000	1,065369	4,999847
0,035000	1,000519	4,486542
0,036000	1,059875	3,173828
0,037000	1,016388	2,937469
0,038000	1,049652	4,999847
0,039000	1,032715	4,999847
0,040000	1,040649	4,999847
0,041000	1,047058	4,999847
0,042000	1,033020	4,999847
0,043000	1,061096	4,999847
0,044000	1,024933	4,999847
0,045000	1,074524	4,999847
0,046000	1,018372	3,793335
0,047000	1,087036	4,328766
0,048000	1,012421	3,775635
0,049000	1,096954	4,999847
0,050000	1,019440	4,999847
0,051000	1,084747	4,999847
0,052000	1,040344	4,999847
0,053000	1,072388	4,999847
0,054000	1,059570	4,999847
0,055000	1,061096	4,881897
0,056000	1,076965	2,941132
0,057000	1,050110	3,090973
0,058000	1,093597	4,999847
0,059000	1,040344	4,999847
0,060000	1,109161	4,999847
0,061000	1,032715	4,999847
0,062000	1,123810	4,999847
0,063000	1,024780	4,999847
0,064000	1,125641	4,999847
0,065000	1,043549	4,900055
0,066000	1,108856	3,620911
0,067000	1,067047	4,218292
0,068000	1,092987	3,795166
0,069000	1,088562	4,999847
0,070000	1,079102	4,999847
0,071000	1,108856	4,999847
0,072000	1,066589	4,999847
0,073000	1,127777	4,999847
0,074000	1,055450	4,999847
0,075000	1,145020	4,999847
0,076000	1,044617	2,743835
0,077000	1,161652	3,863525
0,078000	1,041870	4,999847
0,079000	1,152039	4,999847
0,080000	1,069489	4,999847
0,081000	1,131134	4,999847
0,082000	1,095886	4,999847
0,083000	1,113434	4,999847
0,084000	1,120605	4,999847
0,085000	1,097260	4,999847
0,086000	1,143188	3,318329
0,087000	1,082306	4,999847
0,088000	1,163940	3,989105
0,089000	1,069641	4,999847
0,090000	1,183319	4,999847
0,091000	1,057434	4,999847
0,092000	1,198578	4,999847
0,093000	1,066437	4,999847
0,094000	1,175690	4,999847
0,095000	1,098480	4,999847
0,096000	1,152039	2,845001
0,097000	1,127319	4,317932
0,098000	1,132050	4,999847
0,099000	1,154633	4,999847
0,100000	1,113892	4,999847
0,101000	1,179504	4,999847
0,102000	1,097260	4,999847
0,103000	1,202393	4,999847
0,104000	1,082916	4,999847
0,105000	1,223602	4,999847
0,106000	1,069946	3,647766
0,107000	1,227570	3,728027
0,108000	1,094818	4,234772
0,109000	1,199036	4,999847
0,110000	1,130066	4,999847
0,111000	1,173553	4,999847
0,112000	1,161957	4,999847
0,113000	1,150360	4,999847
0,114000	1,191101	4,999847
0,115000	1,130371	4,999847
0,116000	1,217957	2,920685
0,117000	1,111603	4,112549
0,118000	1,242371	4,999847
0,119000	1,095734	4,999847
0,120000	1,264954	4,999847
0,121000	1,086884	4,999847
0,122000	1,249237	4,999847
0,123000	1,125641	4,999847
0,124000	1,220093	4,999847
0,125000	1,164856	4,999847
0,126000	1,192474	3,105164
0,127000	1,196594	4,999847
0,128000	1,335144	4,270325
0,129000	1,387177	4,999847
0,130000	1,348114	4,999847
0,131000	1,191406	4,999847
0,132000	1,230164	4,999847
0,133000	1,196289	4,999847
0,134000	1,190186	4,999847
0,135000	1,224365	4,999847
0,136000	1,164246	2,603302
0,137000	1,254425	3,556213
0,138000	1,142578	4,999847
0,139000	1,282349	4,999847
0,140000	1,123657	4,999847
0,141000	1,307831	4,999847
0,142000	1,107330	4,999847
0,143000	1,304016	4,999847
0,144000	1,145935	4,999847
0,145000	1,267395	4,677277
0,146000	1,189423	3,422089
0,147000	1,234283	4,666595
0,148000	1,228333	3,814240
0,149000	1,205444	4,999847
0,150000	1,263885	4,999847
0,151000	1,179962	4,999847
0,152000	1,296234	4,999847
0,153000	1,157227	4,999847
0,154000	1,325378	4,999847
0,155000	1,137390	4,117432
0,156000	1,352081	2,818909
0,157000	1,133423	3,927765
0,158000	1,326599	4,999847
0,159000	1,183014	4,999847
0,160000	1,287537	4,999847
0,161000	1,228180	4,999847
0,162000	1,253357	4,999847
0,163000	1,269226	4,999847
0,164000	1,222839	4,999847
0,165000	1,306152	4,999847
0,166000	1,196136	3,431549
0,167000	1,339417	4,221344
0,168000	1,172485	4,564056
0,169000	1,370392	4,999847
0,170000	1,151428	4,999847
0,171000	1,389923	4,999847
0,172000	1,170349	4,999847
0,173000	1,347351	4,999847
0,174000	1,222534	4,999847
0,175000	1,307068	3,881683
0,176000	1,269684	2,664337
0,177000	1,271515	3,423309
0,178000	1,311951	4,930420
0,179000	1,240540	4,999847
0,180000	1,350250	4,999847
0,181000	1,213074	4,999847
0,182000	1,384735	4,999847
0,183000	1,188660	4,999847
0,184000	1,416016	4,999847
0,185000	1,167450	4,515228
0,186000	1,414490	4,037781
0,187000	1,212158	4,999847
0,188000	1,367798	3,498993
0,189000	1,265717	4,999847
0,190000	1,326904	4,999847
0,191000	1,314087	4,999847
0,192000	1,290588	4,999847
0,193000	1,357422	4,999847
0,194000	1,259003	4,999847
0,195000	1,396790	4,012146
0,196000	1,231232	2,997742
0,197000	1,431732	4,464264
0,198000	1,207123	4,685669
0,199000	1,463470	4,999847
0,200000	1,198883	4,999847
0,201000	1,436005	4,999847
0,202000	1,258087	4,999847
0,203000	1,388702	4,999847
0,204000	1,312256	4,999847
0,205000	1,347656	4,985199
0,206000	1,361694	3,899384
0,207000	1,311493	4,508362
0,208000	1,405487	3,769684
0,209000	1,279449	4,999847
0,210000	1,445160	4,999847
0,211000	1,252289	4,999847
0,212000	1,480713	4,999847
0,213000	1,227875	4,999847
0,214000	1,507568	4,999847
0,215000	1,245880	4,335327
0,216000	1,459198	3,636322
0,217000	1,307526	4,216461
0,218000	1,411591	4,640808
0,219000	1,362762	4,999847
0,220000	1,370697	4,999847
0,221000	1,412201	4,999847
0,222000	1,334839	4,999847
0,223000	1,456757	4,999847
0,224000	1,303711	4,999847
0,225000	1,496582	4,704742
0,226000	1,276855	4,125824
0,227000	1,532745	4,065552
0,228000	1,253662	4,245758
0,229000	1,536102	4,999847
0,230000	1,299744	4,999847
0,231000	1,483307	4,999847
0,232000	1,362000	4,999847
0,233000	1,436768	4,999847
0,234000	1,416931	4,999847
0,235000	1,396790	4,677277
0,236000	1,466522	3,240509
0,237000	1,361847	2,236633
0,238000	1,511383	4,938965
0,239000	1,331940	4,999847
0,240000	1,551208	4,999847
0,241000	1,305847	4,999847
0,242000	1,587372	4,999847
0,243000	1,293335	4,999847
0,244000	1,562195	4,999847
0,245000	1,358337	4,999847
0,246000	1,509705	4,112854
0,247000	1,419830	4,554749
0,248000	1,465149	3,394928
0,249000	1,475067	4,949951
0,250000	1,425781	4,999847
0,251000	1,524353	4,999847
0,252000	1,392670	4,999847
0,253000	1,568146	4,999847
0,254000	1,363525	4,923706
0,255000	1,607513	4,888306
0,256000	1,339264	3,294220
0,257000	1,639709	3,187103
0,258000	1,353455	4,822998
0,259000	1,589355	4,999847
0,260000	1,420441	4,999847
0,261000	1,539459	4,999847
0,262000	1,481476	4,999847
0,263000	1,496277	4,999847
0,264000	1,535492	4,999847
0,265000	1,458740	4,999847
0,266000	1,583862	4,223633
0,267000	1,426849	4,999847
0,268000	1,627045	3,800201
0,269000	1,399384	4,999847
0,270000	1,665802	4,999847
0,271000	1,375732	4,999847
0,272000	1,673737	4,999847
0,273000	1,419373	4,999847
0,274000	1,619263	4,999847
0,275000	1,485443	4,954224
0,276000	1,570892	3,224792
0,277000	1,545105	3,082733
0,278000	1,529999	4,999847
0,279000	1,597595	4,999847
0,280000	1,494446	4,999847
0,281000	1,645050	4,999847
0,282000	1,463776	4,999847
0,283000	1,687012	4,999847
0,284000	1,437225	4,999847
0,285000	1,724854	4,999847
0,286000	1,420746	4,103394
0,287000	1,703491	4,431458
0,288000	1,487427	4,362488
0,289000	1,650696	4,999847
0,290000	1,551971	4,999847
0,291000	1,604767	4,999847
0,292000	1,609650	4,999847
0,293000	1,565552	4,999847
0,294000	1,661072	4,999847
0,295000	1,531525	4,646301
0,296000	1,707001	3,000336
0,297000	1,502380	4,180145
0,298000	1,747589	4,999847
0,299000	1,477356	4,999847
0,300000	1,783447	4,999847
0,301000	1,486664	4,999847
0,302000	1,734314	4,999847
0,303000	1,556244	4,999847
0,304000	1,683655	4,999847
0,305000	1,618652	4,999847
0,306000	1,640015	3,647919
0,307000	1,674652	4,485626
0,308000	1,601868	3,663788
0,309000	1,724396	4,846954
0,310000	1,569824	4,999847
0,311000	1,768951	4,999847
0,312000	1,542206	4,999847
0,313000	1,808929	4,999847
0,314000	1,519012	4,999847
0,315000	1,820831	4,999847
0,316000	1,556854	3,303375
0,317000	1,766205	3,624420
0,318000	1,624908	4,999847
0,319000	1,717682	4,999847
0,320000	1,685944	4,999847
0,321000	1,676178	4,999847
0,322000	1,739960	4,999847
0,323000	1,640930	4,999847
0,324000	1,787872	4,999847
0,325000	1,609955	4,999847
0,326000	1,831360	4,118347
0,327000	1,582642	4,264832
0,328000	1,869965	3,921204
0,329000	1,563416	4,999847
0,330000	1,855927	4,999847
0,331000	1,629028	4,999847
0,332000	1,803284	4,999847
0,333000	1,694946	4,999847
0,334000	1,757965	4,999847
0,335000	1,753693	4,999847
0,336000	1,718445	3,050232
0,337000	1,806335	3,165131
0,338000	1,684875	4,999847
0,339000	1,853485	4,999847
0,340000	1,655884	4,999847
0,341000	1,897430	4,999847
0,342000	1,631165	4,999847
0,343000	1,940155	4,999847
0,344000	1,633759	4,999847
0,345000	1,898651	4,999847
0,346000	1,704407	3,369141
0,347000	1,850128	3,884125
0,348000	1,767731	3,732300
0,349000	1,805725	4,999847
0,350000	1,824493	4,999847
0,351000	1,767578	4,999847
0,352000	1,875305	4,999847
0,353000	1,735077	4,999847
0,354000	1,923676	4,999847
0,355000	1,706390	4,987030
0,356000	1,970215	2,591248
0,357000	1,682739	3,531799
0,358000	1,995850	4,999847
0,359000	1,714020	4,999847
0,360000	1,948395	4,999847
0,361000	1,782227	4,999847
0,362000	1,903534	4,999847
0,363000	1,843262	4,999847
0,364000	1,862793	4,999847
0,365000	1,899567	4,999847
0,366000	1,826019	3,917999
0,367000	1,952820	4,760590
0,368000	1,794281	3,536377
0,369000	2,004242	4,500580
0,370000	1,766357	4,999847
0,371000	2,053680	4,999847
0,372000	1,741791	4,999847
0,373000	2,051849	4,999847
0,374000	1,801453	4,999847
0,375000	2,007446	4,999847
0,376000	1,866913	3,091583
0,377000	1,966400	3,056335
0,378000	1,928253	4,917450
0,379000	1,929779	4,999847
0,380000	1,987305	4,999847
0,381000	1,896210	4,999847
0,382000	2,043762	4,999847
0,383000	1,865997	4,999847
0,384000	2,097321	4,999847
0,385000	1,838989	4,999847
0,386000	2,148743	2,806854
0,387000	1,832733	4,723816
0,388000	2,119904	3,680878
0,389000	1,901855	4,999847
0,390000	2,079315	4,999847
0,391000	1,969604	4,999847
0,392000	2,042694	4,999847
0,393000	2,033997	4,999847
0,394000	2,008820	4,999847
0,395000	2,094421	4,634552
0,396000	1,978302	2,891083
0,397000	2,152557	2,960358
0,398000	1,949921	4,587708
0,399000	2,206421	4,999847
0,400000	1,924591	4,999847
0,401000	2,238617	4,999847
0,402000	1,945953	4,999847
0,403000	2,195435	4,999847
0,404000	2,015533	4,999847
0,405000	2,153931	4,999847
0,406000	2,080841	3,694153
0,407000	2,115936	4,163971
0,408000	2,142487	3,242187
0,409000	2,080078	4,923248
0,410000	2,199860	4,999847
0,411000	2,047577	4,999847
0,412000	2,251892	4,999847
0,413000	2,017059	4,999847
0,414000	2,294769	4,999847
0,415000	1,987762	4,757690
0,416000	2,282867	3,031158
0,417000	2,038116	3,255157
0,418000	2,232056	4,747162
0,419000	2,103729	4,999847
0,420000	2,188416	4,999847
0,421000	1,920319	4,999847
0,422000	1,766357	4,999847
0,423000	1,704407	4,999847
0,424000	1,680450	4,999847
0,425000	1,671143	4,931641
0,426000	1,667633	3,823547
0,427000	1,665802	4,207458
0,428000	1,665039	2,961426
0,429000	1,662292	4,999847
0,430000	1,663971	4,999847
0,431000	1,663971	4,999847
0,432000	1,664276	4,999847
0,433000	1,663971	4,999847
0,434000	1,663818	4,999847
0,435000	1,663818	4,999847
0,436000	1,663666	2,400818
0,437000	1,663666	4,999847
0,438000	1,663818	4,716339
0,439000	1,663818	4,999847
0,440000	1,663666	4,999847
0,441000	1,663513	4,999847
0,442000	1,663361	4,999847
0,443000	1,307678	4,999847
0,444000	1,097717	4,999847
0,445000	1,055298	4,775238
0,446000	0,996857	4,323578
0,447000	1,024933	4,315338
0,448000	0,983582	3,367767
0,449000	1,016235	4,999847
0,450000	0,991516	4,999847
0,451000	1,010590	4,999847
0,452000	1,001282	4,999847
0,453000	1,005707	4,999847
0,454000	1,010895	4,999847
0,455000	1,001282	4,999847
0,456000	1,020355	3,084412
0,457000	0,997162	3,711548
0,458000	1,030121	4,617157
0,459000	0,993652	4,999847
0,460000	1,038971	4,999847
0,461000	0,990143	4,999847
0,462000	1,045227	4,999847
0,463000	0,996857	4,999847
0,464000	1,037903	4,999847
0,465000	1,010742	4,999847
0,466000	1,031189	4,246063
0,467000	1,023865	3,434448
0,468000	1,023865	3,130035
0,469000	1,036224	4,999847
0,470000	1,017151	4,999847
0,471000	1,047974	4,999847
0,472000	1,010895	4,999847
0,473000	1,059875	4,999847
0,474000	1,006012	4,999847
0,475000	1,070404	4,306183
0,476000	1,000977	3,605499
0,477000	1,071320	2,297058
0,478000	1,016235	4,999847
0,479000	1,060028	4,999847
0,480000	1,033783	4,999847
0,481000	1,050262	4,999847
0,482000	1,049500	4,999847
0,483000	1,040649	4,999847
0,484000	1,064301	4,999847
0,485000	1,032867	4,999847
0,486000	1,078796	4,432068
0,487000	1,026154	4,594727
0,488000	1,092987	4,008026
0,489000	1,018677	4,999847
0,490000	1,106415	4,999847
0,491000	1,018066	4,999847
0,492000	1,097412	4,999847
0,493000	1,039886	4,999847
0,494000	1,083679	4,999847
0,495000	1,060333	4,837646
0,496000	1,071014	3,429260
0,497000	1,079102	2,718964
0,498000	1,059418	4,297943
0,499000	1,097107	4,999847
0,500000	1,048889	4,999847
0,501000	1,113434	4,999847
0,502000	1,039581	4,999847
0,503000	1,129150	4,999847
0,504000	1,031189	4,999847
0,505000	1,139984	4,999847
0,506000	1,040497	4,331512
0,507000	1,122437	4,732666
0,508000	1,065826	3,091888
0,509000	1,105499	4,999847
0,510000	1,089172	4,999847
0,511000	1,090088	4,999847
0,512000	1,110687	4,999847
0,513000	1,076202	4,999847
0,514000	1,130524	4,999847
0,515000	1,063843	4,639587
0,516000	1,149597	3,829498
0,517000	1,052856	3,648071
0,518000	1,166687	4,051514
0,519000	1,043243	4,999847
0,520000	1,167755	4,999847
0,521000	1,066132	4,999847
0,522000	1,145477	4,999847
0,523000	1,094666	4,999847
0,524000	1,126251	4,999847
0,525000	1,120605	4,999847
0,526000	1,108856	3,936005
0,527000	1,144714	3,565216
0,528000	1,092377	3,744965
0,529000	1,166687	4,758606
0,530000	1,078491	4,999847
0,531000	1,186523	4,999847
0,532000	1,065674	4,999847
0,533000	1,206512	4,999847
0,534000	1,062317	4,999847
0,535000	1,192932	4,514923
0,536000	1,095123	3,783264
0,537000	1,167908	3,789673
0,538000	1,126251	4,999847
0,539000	1,145782	4,999847
0,540000	1,154175	4,999847
0,541000	1,125793	4,999847
0,542000	1,181030	4,999847
0,543000	1,108246	4,999847
0,544000	1,205139	4,999847
0,545000	1,092682	4,999847
0,546000	1,227570	4,250488
0,547000	1,078186	2,859192
0,548000	1,244659	3,956146
0,549000	1,089020	4,999847
0,550000	1,216736	4,999847
0,551000	1,126099	4,999847
0,552000	1,189575	4,999847
0,553000	1,160126	4,999847
0,554000	1,164703	4,999847
0,555000	1,190948	4,999847
0,556000	1,142426	3,829651
0,557000	1,219330	3,026733
0,558000	1,122742	4,683228
0,559000	1,245117	4,999847
0,560000	1,105804	4,999847
0,561000	1,269073	4,999847
0,562000	1,090546	4,999847
0,563000	1,271515	4,999847
0,564000	1,119690	4,999847
0,565000	1,306458	4,999847
0,566000	1,376038	4,401703
0,567000	1,401520	4,162140
0,568000	1,388855	4,003448
0,569000	1,173096	4,999847
0,570000	1,254120	4,999847
0,571000	1,175079	4,999847
0,572000	1,210327	4,999847
0,573000	1,205139	4,999847
0,574000	1,181641	4,999847
0,575000	1,237335	4,999847
0,576000	1,158142	3,372040
0,577000	1,267242	4,315186
0,578000	1,137238	4,556732
0,579000	1,294403	4,999847
0,580000	1,119232	4,999847
0,581000	1,319427	4,999847
0,582000	1,117859	4,999847
0,583000	1,293793	4,999847
0,584000	1,163483	4,999847
0,585000	1,258545	4,999847
0,586000	1,205750	4,186554
0,587000	1,226654	4,198761
0,588000	1,243439	3,754578
0,589000	1,198578	4,970093
0,590000	1,278229	4,999847
0,591000	1,173401	4,999847
0,592000	1,309814	4,999847
0,593000	1,151733	4,999847
0,594000	1,338196	4,999847
0,595000	1,132507	4,999847
0,596000	1,354980	3,919220
0,597000	1,153107	3,361053
0,598000	1,315460	4,938202
0,599000	1,201477	4,999847
0,600000	1,277466	4,999847
0,601000	1,244965	4,999847
0,602000	1,244354	4,999847
0,603000	1,284943	4,999847
0,604000	1,216125	4,999847
0,605000	1,321259	4,999847
0,606000	1,189423	4,004974
0,607000	1,353302	3,498077
0,608000	1,167145	3,713074
0,609000	1,383209	4,999847
0,610000	1,147003	4,999847
0,611000	1,379242	4,999847
0,612000	1,191101	4,999847
0,613000	1,335297	4,999847
0,614000	1,241913	4,999847
0,615000	1,296997	4,999847
0,616000	1,287537	3,113708
0,617000	1,262512	2,551117
0,618000	1,328278	4,895325
0,619000	1,232147	4,999847
0,620000	1,365356	4,999847
0,621000	1,206360	4,999847
0,622000	1,398468	4,999847
0,623000	1,183167	4,999847
0,624000	1,429291	4,999847
0,625000	1,177826	4,999847
0,626000	1,400757	4,240570
0,627000	1,233978	3,262939
0,628000	1,356049	3,994446
0,629000	1,285706	4,051361
0,630000	1,316681	4,999847
0,631000	1,332855	4,999847
0,632000	1,282196	4,999847
0,633000	1,374817	4,999847
0,634000	1,252136	4,999847
0,635000	1,412506	4,999847
0,636000	1,225128	2,774963
0,637000	1,446381	2,766724
0,638000	1,202240	4,999847
0,639000	1,470032	4,999847
0,640000	1,221771	4,999847
0,641000	1,422729	4,999847
0,642000	1,279755	4,999847
0,643000	1,377106	4,999847
0,644000	1,332550	4,999847
0,645000	1,337738	4,999847
0,646000	1,380463	3,642273
0,647000	1,303101	3,488007
0,648000	1,423187	3,582916
0,649000	1,272430	3,463135
0,650000	1,461487	4,857635
0,651000	1,246185	4,999847
0,652000	1,496277	4,999847
0,653000	1,223297	4,999847
0,654000	1,496429	4,999847
0,655000	1,270752	4,999847
0,656000	1,445618	3,560181
0,657000	1,330566	3,809509
0,658000	1,400299	4,999847
0,659000	1,383820	4,999847
0,660000	1,361084	4,999847
0,661000	1,431732	4,999847
0,662000	1,326599	4,999847
0,663000	1,474762	4,999847
0,664000	1,297302	4,999847
0,665000	1,513214	4,999847
0,666000	1,271515	3,726044
0,667000	1,548004	3,743439
0,668000	1,261139	3,623962
0,669000	1,521301	4,999847
0,670000	1,325073	4,999847
0,671000	1,470184	4,999847
0,672000	1,385193	4,999847
0,673000	1,426086	4,999847
0,674000	1,438446	4,999847
0,675000	1,387634	4,999847
0,676000	1,486664	3,128204
0,677000	1,354218	3,301086
0,678000	1,529388	4,991913
0,679000	1,325531	4,999847
0,680000	1,567688	4,999847
0,681000	1,300812	4,999847
0,682000	1,597748	4,999847
0,683000	1,318207	4,999847
0,684000	1,547089	4,999847
0,685000	1,384125	4,999847
0,686000	1,497040	4,391327
0,687000	1,443634	4,142761
0,688000	1,454468	4,441833
0,689000	1,496582	4,643402
0,690000	1,417389	4,999847
0,691000	1,543732	4,999847
0,692000	1,385498	4,999847
0,693000	1,585846	4,999847
0,694000	1,358490	4,999847
0,695000	1,624298	4,999847
0,696000	1,334839	3,475647
0,697000	1,629028	3,870850
0,698000	1,381073	4,520264
0,699000	1,575317	4,999847
0,700000	1,446686	4,999847
0,701000	1,527710	4,999847
0,702000	1,504517	4,999847
0,703000	1,486664	4,999847
0,704000	1,556854	4,999847
0,705000	1,451111	4,999847
0,706000	1,603088	4,134674
0,707000	1,420898	3,867645
0,708000	1,644745	3,764801
0,709000	1,394501	4,322357
0,710000	1,682281	4,999847
0,711000	1,380310	4,999847
0,712000	1,658783	4,999847
0,713000	1,447296	4,999847
0,714000	1,605835	4,999847
0,715000	1,511078	4,999847
0,716000	1,559906	3,016815
0,717000	1,567688	3,844147
0,718000	1,520996	4,398804
0,719000	1,618652	4,999847
0,720000	1,487122	4,999847
0,721000	1,663666	4,999847
0,722000	1,457977	4,999847
0,723000	1,704712	4,999847
0,724000	1,433411	4,999847
0,725000	1,738434	4,999847
0,726000	1,445770	4,475555
0,727000	1,688538	4,874878
0,728000	1,515198	4,183350
0,729000	1,638031	4,603119
0,730000	1,576996	4,999847
0,731000	1,594696	4,999847
0,732000	1,631927	4,999847
0,733000	1,557312	4,999847
0,734000	1,681824	4,999847
0,735000	1,524811	4,999847
0,736000	1,724701	3,894348
0,737000	1,496582	3,812561
0,738000	1,764984	3,698425
0,739000	1,473694	4,999847
0,740000	1,774597	4,999847
0,741000	1,515045	4,999847
0,742000	1,720123	4,999847
0,743000	1,582794	4,999847
0,744000	1,671448	4,999847
0,745000	1,643219	4,999847
0,746000	1,630096	3,755035
0,747000	1,696320	4,999847
0,748000	1,594238	4,187469
0,749000	1,744537	4,882355
0,750000	1,564026	4,999847
0,751000	1,787415	4,999847
0,752000	1,537628	4,999847
0,753000	1,825562	4,999847
0,754000	1,519318	4,999847
0,755000	1,806030	4,952545
0,756000	1,585693	3,404388
0,757000	1,752777	2,517242
0,758000	1,651001	4,447327
0,759000	1,707153	4,999847
0,760000	1,709747	4,999847
0,761000	1,667786	4,999847
0,762000	1,761322	4,999847
0,763000	1,633911	4,999847
0,764000	1,807861	4,999847
0,765000	1,605225	4,630890
0,766000	1,849670	4,114380
0,767000	1,580505	4,285126
0,768000	1,888428	3,308716
0,769000	1,587067	4,959564
0,770000	1,842346	4,999847
0,771000	1,657562	4,999847
0,772000	1,791840	4,999847
0,773000	1,721039	4,999847
0,774000	1,748199	4,999847
0,775000	1,776886	4,750977
0,776000	1,711121	3,436279
0,777000	1,827850	3,646393
0,778000	1,679230	4,962311
0,779000	1,873169	4,999847
0,780000	1,651764	4,999847
0,781000	1,917114	4,999847
0,782000	1,628113	4,999847
0,783000	1,936798	4,999847
0,784000	1,663208	4,999847
0,785000	1,886597	4,999847
0,786000	1,732025	4,783478
0,787000	1,839905	3,235168
0,788000	1,793213	4,678497
0,789000	1,797638	4,669800
0,790000	1,847382	4,999847
0,791000	1,761169	4,999847
0,792000	1,897583	4,999847
0,793000	1,730042	4,999847
0,794000	1,945648	4,999847
0,795000	1,703644	4,761658
0,796000	1,992340	4,074860
0,797000	1,681061	3,314362
0,798000	1,985321	4,520111
0,799000	1,743927	4,999847
0,800000	1,938324	4,999847
0,801000	1,809845	4,999847
0,802000	1,894989	4,999847
0,803000	1,868134	4,999847
0,804000	1,856079	4,999847
0,805000	1,923523	4,999847
0,806000	1,820831	4,838257
0,807000	1,976624	3,089600
0,808000	1,789703	4,415741
0,809000	2,027435	4,999847
0,810000	1,763458	4,999847
0,811000	2,076263	4,999847
0,812000	1,761780	4,999847
0,813000	2,042694	4,999847
0,814000	1,830292	4,999847
0,815000	1,999359	4,999847
0,816000	1,894684	3,950806
0,817000	1,960297	2,461090
0,818000	1,955566	4,807587
0,819000	1,924896	4,999847
0,820000	2,013855	4,999847
0,821000	1,893158	4,999847
0,822000	2,069550	4,999847
0,823000	1,863708	4,999847
0,824000	2,122498	4,999847
0,825000	1,837463	4,999847
0,826000	2,154541	4,853058
0,827000	1,863403	4,325104
0,828000	2,113190	3,780365
0,829000	1,933136	4,933929
0,830000	2,073975	4,999847
0,831000	1,999969	4,999847
0,832000	2,038269	4,999847
0,833000	2,063141	4,999847
0,834000	2,005615	4,999847
0,835000	2,122955	4,906616
0,836000	1,975555	4,030609
0,837000	2,178802	3,256226
0,838000	1,948547	4,999847
0,839000	2,229156	4,999847
0,840000	1,920471	4,999847
0,841000	2,229767	4,999847
0,842000	1,976776	4,999847
0,843000	2,186432	4,999847
0,844000	2,045288	4,999847
0,845000	2,145844	4,993896
0,846000	2,108765	3,979340
0,847000	2,108002	2,991638
0,848000	2,169037	4,999847
0,849000	2,073669	4,999847
0,850000	2,224731	4,999847
0,851000	2,041779	4,999847
0,852000	2,273560	4,999847
0,853000	2,011871	4,999847
0,854000	2,309723	4,999847
0,855000	1,999512	4,999847
0,856000	2,266388	3,647766
0,857000	2,065735	2,472382
0,858000	2,218475	4,999847
0,859000	1,938019	4,999847
0,860000	1,775208	4,999847
0,861000	1,707611	4,999847
0,862000	1,681976	4,999847
0,863000	1,671143	4,999847
0,864000	1,667480	4,999847
0,865000	1,665649	4,999847
0,866000	1,664734	4,456177
0,867000	1,664581	3,802490
0,868000	1,664581	3,563995
0,869000	1,664276	4,743195
0,870000	1,664124	4,999847
0,871000	1,664124	4,999847
0,872000	1,664581	4,999847
0,873000	1,663513	4,999847
0,874000	1,663818	4,999847
0,875000	1,663666	4,999847
0,876000	1,663513	3,190002
0,877000	1,663971	3,076019
0,878000	1,663361	4,954681
0,879000	1,663361	4,798431
0,880000	1,546936	4,999847
0,881000	1,223450	4,999847
0,882000	1,066284	4,999847
0,883000	1,035767	4,999847
0,884000	1,005096	4,999847
0,885000	1,005554	4,999847
0,886000	1,003876	4,339447
0,887000	0,997620	2,665710
0,888000	1,010437	4,391937
0,889000	0,993347	4,861908
0,890000	1,018982	4,999847
0,891000	0,989990	4,999847
0,892000	1,027374	4,999847
0,893000	0,986633	4,999847
0,894000	1,035614	4,999847
0,895000	0,988464	4,999847
0,896000	1,031036	3,624420
0,897000	1,000977	4,018250
0,898000	1,024475	4,647217
0,899000	1,013336	4,999847
0,900000	1,018524	4,999847
0,901000	1,024933	4,999847
0,902000	1,012268	4,999847
0,903000	1,036530	4,999847
0,904000	1,007080	4,999847
0,905000	1,047516	4,999847
0,906000	1,002808	4,100952
0,907000	1,057434	4,801636
0,908000	0,998383	3,556519
0,909000	1,063995	4,989777
0,910000	1,006012	4,999847
0,911000	1,053772	4,999847
0,912000	1,022034	4,999847
0,913000	1,044464	4,999847
0,914000	1,037140	4,999847
0,915000	1,036377	4,999847
0,916000	1,052094	3,467255
0,917000	1,028442	4,980011
0,918000	1,065216	4,067841
0,919000	1,021271	4,999847
0,920000	1,078186	4,999847
0,921000	1,014709	4,999847
0,922000	1,090240	4,999847
0,923000	1,009827	4,999847
0,924000	1,090546	4,999847
0,925000	1,027679	4,999847
0,926000	1,077423	4,259491
0,927000	1,047058	3,491058
0,928000	1,066132	4,015961
0,929000	1,065674	4,730835
0,930000	1,055145	4,999847
0,931000	1,082153	4,999847
0,932000	1,045074	4,999847
0,933000	1,098785	4,999847
0,934000	1,036072	4,999847
0,935000	1,113739	4,999847
0,936000	1,028137	3,332977
0,937000	1,128235	3,542023
0,938000	1,028290	4,999847
0,939000	1,116943	4,731598
0,940000	1,052094	4,999847
0,941000	1,100464	4,999847
0,942000	1,074677	4,999847
0,943000	1,086121	4,999847
0,944000	1,095581	4,999847
0,945000	1,072693	4,999847
0,946000	1,115417	3,918762
0,947000	1,060944	3,593750
0,948000	1,133575	4,199524
0,949000	1,049957	4,473114
0,950000	1,150818	4,999847
0,951000	1,040497	4,999847
0,952000	1,161652	4,999847
0,953000	1,051941	4,999847
0,954000	1,141510	4,999847
0,955000	1,079712	4,707184
0,956000	1,122437	3,772430
0,957000	1,105347	3,697357
0,958000	1,104889	4,136200
0,959000	1,128387	4,999847
0,960000	1,089478	4,999847
0,961000	1,150055	4,999847
0,962000	1,075439	4,999847
0,963000	1,170197	4,999847
0,964000	1,063080	4,999847
0,965000	1,189270	4,999847
0,966000	1,051788	4,602509
0,967000	1,188507	3,235016
0,968000	1,078796	4,366913
0,969000	1,163940	3,392487
0,970000	1,109467	4,999847
0,971000	1,142426	4,999847
0,972000	1,137695	4,999847
0,973000	1,122589	4,999847
0,974000	1,163940	4,999847
0,975000	1,105347	4,208527
0,976000	1,187744	3,739624
0,977000	1,090393	4,441528
0,978000	1,209717	3,975677
0,979000	1,075897	4,999847
0,980000	1,230011	4,999847
0,981000	1,073303	4,999847
0,982000	1,213837	4,999847
0,983000	1,108704	4,999847
0,984000	1,186523	4,999847
0,985000	1,142578	4,875336
0,986000	1,162109	4,489746
0,987000	1,172791	3,959198
0,988000	1,139984	3,805542
0,989000	1,201172	3,961792
0,990000	1,121063	4,999847
0,991000	1,226807	4,999847
0,992000	1,104126	4,999847
0,993000	1,250153	4,999847
0,994000	1,089020	4,999847
0,995000	1,266632	4,680481
0,996000	1,102600	3,949280
0,997000	1,236877	4,449768
0,998000	1,141357	3,407898
0,999000	1,206665	4,999847

