LabVIEW Measurement	
Writer_Version	2
Reader_Version	2
Separator	Tab
Decimal_Separator	,
Multi_Headings	Yes
X_Columns	One
Time_Pref	Absolute
Operator	d.nicolai
Date	2023/11/09
Time	16:46:38,4425126999997713665
***End_of_Header***	
	
Channels	2		
Samples	1000	1000	
Date	2023/11/09	2023/11/09	
Time	16:46:46,9875126999994891687	16:46:46,9875126999994891687	
Y_Unit_Label	Volts	Volts	
X_Dimension	Time	Time	
X0	0,0000000000000000E+0	0,0000000000000000E+0	
Delta_X	0,001000	0,001000	
***End_of_Header***			
X_Value	powebox	triggerbox	Comment
0,000000	1,031189	0,836487
0,001000	1,137695	4,600983
0,002000	1,020050	4,999847
0,003000	1,138763	4,999847
0,004000	1,018219	4,999847
0,005000	1,111145	4,999847
0,006000	1,001129	4,999847
0,007000	0,952911	4,999847
0,008000	0,932465	4,999847
0,009000	0,924225	4,009857
0,010000	0,924225	3,315582
0,011000	0,921783	4,457397
0,012000	0,921173	3,897095
0,013000	0,916901	4,999847
0,014000	0,916595	4,999847
0,015000	0,916443	4,999847
0,016000	0,916138	4,999847
0,017000	0,915985	4,999847
0,018000	0,916290	4,781494
0,019000	0,915833	3,018036
0,020000	0,915833	2,815094
0,021000	0,915680	4,667358
0,022000	0,915527	4,999847
0,023000	0,915985	4,999847
0,024000	0,915680	4,999847
0,025000	0,915680	4,999847
0,026000	0,915527	4,999847
0,027000	0,760651	4,999847
0,028000	0,638580	4,999847
0,029000	0,600128	4,614716
0,030000	0,566254	3,545532
0,031000	0,574188	3,359985
0,032000	0,551605	3,819885
0,033000	0,572815	4,999847
0,034000	0,549469	4,999847
0,035000	0,570526	4,999847
0,036000	0,555267	4,999847
0,037000	0,567627	4,999847
0,038000	0,561066	4,999847
0,039000	0,564728	3,262482
0,040000	0,566406	3,025818
0,041000	0,562286	4,999847
0,042000	0,572205	4,703217
0,043000	0,559845	4,999847
0,044000	0,578003	4,999847
0,045000	0,557556	4,999847
0,046000	0,583649	4,999847
0,047000	0,555420	4,999847
0,048000	0,588379	4,999847
0,049000	0,558624	3,348846
0,050000	0,504913	3,431854
0,051000	0,525665	3,271637
0,052000	0,561981	4,189606
0,053000	0,566559	4,999847
0,054000	0,572205	4,999847
0,055000	0,579987	4,999847
0,056000	0,571136	4,999847
0,057000	0,587921	4,999847
0,058000	0,568390	4,999847
0,059000	0,594940	2,558746
0,060000	0,565338	4,643097
0,061000	0,601654	3,775024
0,062000	0,562592	4,647827
0,063000	0,603333	4,999847
0,064000	0,570068	4,999847
0,065000	0,597382	4,999847
0,066000	0,579681	4,999847
0,067000	0,591583	4,999847
0,068000	0,588989	4,999847
0,069000	0,586243	4,367065
0,070000	0,579834	3,364105
0,071000	0,574341	4,905243
0,072000	0,602722	4,020081
0,073000	0,576172	4,999847
0,074000	0,613556	4,999847
0,075000	0,573120	4,999847
0,076000	0,621796	4,999847
0,077000	0,571899	4,999847
0,078000	0,618591	4,999847
0,079000	0,583801	3,513489
0,080000	0,610809	2,635498
0,081000	0,594635	4,999847
0,082000	0,603943	4,999847
0,083000	0,605927	4,999847
0,084000	0,597382	4,999847
0,085000	0,615540	4,999847
0,086000	0,591278	4,999847
0,087000	0,624542	4,999847
0,088000	0,585937	4,999847
0,089000	0,633545	3,858032
0,090000	0,580902	4,349060
0,091000	0,641632	3,128204
0,092000	0,584412	3,584900
0,093000	0,632324	4,999847
0,094000	0,598602	4,999847
0,095000	0,622864	4,999847
0,096000	0,611267	4,999847
0,097000	0,614777	4,999847
0,098000	0,623016	4,999847
0,099000	0,607147	2,866974
0,100000	0,626068	3,537903
0,101000	0,596771	4,999847
0,102000	0,637054	4,828796
0,103000	0,590973	4,999847
0,104000	0,653229	4,999847
0,105000	0,587921	4,999847
0,106000	0,657043	4,999847
0,107000	0,599670	4,999847
0,108000	0,645599	4,999847
0,109000	0,614471	3,988800
0,110000	0,634918	3,175964
0,111000	0,628510	3,942413
0,112000	0,616302	4,163208
0,113000	0,637817	4,999847
0,114000	0,615082	4,999847
0,115000	0,653381	4,999847
0,116000	0,608826	4,999847
0,117000	0,665283	4,999847
0,118000	0,601044	4,999847
0,119000	0,675049	3,333588
0,120000	0,597076	4,839172
0,121000	0,670929	4,178009
0,122000	0,615387	4,999847
0,123000	0,657959	4,999847
0,124000	0,632019	4,999847
0,125000	0,646362	4,999847
0,126000	0,647430	4,999847
0,127000	0,635529	4,999847
0,128000	0,661163	4,999847
0,129000	0,625610	4,119568
0,130000	0,674133	3,654327
0,131000	0,616150	3,683929
0,132000	0,686188	3,951263
0,133000	0,608826	4,999847
0,134000	0,697479	4,999847
0,135000	0,612030	4,999847
0,136000	0,683441	4,999847
0,137000	0,630951	4,999847
0,138000	0,668945	4,470520
0,139000	0,649414	2,788696
0,140000	0,655975	4,819489
0,141000	0,665894	3,536072
0,142000	0,644531	4,501648
0,143000	0,680847	4,999847
0,144000	0,634003	4,999847
0,145000	0,694885	4,999847
0,146000	0,624542	4,999847
0,147000	0,708313	4,999847
0,148000	0,616302	4,999847
0,149000	0,713043	3,610840
0,150000	0,629120	3,170166
0,151000	0,695648	4,533539
0,152000	0,626678	3,439636
0,153000	0,610962	4,999847
0,154000	0,639496	4,999847
0,155000	0,653839	4,999847
0,156000	0,681458	4,999847
0,157000	0,651550	4,999847
0,158000	0,701447	4,525146
0,159000	0,642242	3,782349
0,160000	0,717468	3,082581
0,161000	0,632324	4,845734
0,162000	0,731506	4,999847
0,163000	0,624847	4,999847
0,164000	0,725555	4,999847
0,165000	0,647888	4,999847
0,166000	0,707703	4,999847
0,167000	0,670013	4,999847
0,168000	0,691376	4,999847
0,169000	0,690002	3,773346
0,170000	0,667419	4,080200
0,171000	0,704651	3,166962
0,172000	0,661926	4,226532
0,173000	0,724945	4,999847
0,174000	0,651245	4,999847
0,175000	0,741119	4,999847
0,176000	0,640869	4,999847
0,177000	0,755463	4,999847
0,178000	0,643311	4,509735
0,179000	0,738220	3,390961
0,180000	0,668030	4,049988
0,181000	0,718994	4,035034
0,182000	0,691223	4,907074
0,183000	0,702209	4,999847
0,184000	0,712280	4,999847
0,185000	0,687103	4,999847
0,186000	0,731659	4,999847
0,187000	0,672760	4,999847
0,188000	0,749207	4,999847
0,189000	0,659790	3,946991
0,190000	0,764160	4,279633
0,191000	0,649414	2,942505
0,192000	0,771942	4,725342
0,193000	0,664215	4,999847
0,194000	0,750275	4,999847
0,195000	0,690460	4,999847
0,196000	0,730133	4,999847
0,197000	0,713959	4,999847
0,198000	0,713196	4,870453
0,199000	0,735626	3,638611
0,200000	0,697327	2,336884
0,201000	0,753937	4,589691
0,202000	0,682678	4,999847
0,203000	0,773010	4,999847
0,204000	0,670319	4,999847
0,205000	0,790253	4,999847
0,206000	0,659790	4,999847
0,207000	0,785217	4,999847
0,208000	0,687103	4,607391
0,209000	0,762787	4,743500
0,210000	0,704041	4,482574
0,211000	0,738220	3,788605
0,212000	0,736847	4,620819
0,213000	0,724030	4,999847
0,214000	0,760651	4,999847
0,215000	0,708771	4,999847
0,216000	0,780945	4,999847
0,217000	0,675964	4,999847
0,218000	0,791931	3,952484
0,219000	0,679169	3,344116
0,220000	0,815125	3,907013
0,221000	0,681915	3,984222
0,222000	0,798035	4,999847
0,223000	0,712891	4,999847
0,224000	0,775299	4,999847
0,225000	0,739899	4,999847
0,226000	0,755463	4,999847
0,227000	0,765076	4,999847
0,228000	0,737915	4,750214
0,229000	0,787354	4,352417
0,230000	0,721588	3,009796
0,231000	0,807953	4,223785
0,232000	0,700226	4,999847
0,233000	0,823669	4,999847
0,234000	0,694275	4,999847
0,235000	0,836792	4,999847
0,236000	0,709991	4,999847
0,237000	0,811920	4,999847
0,238000	0,740356	4,999847
0,239000	0,789185	3,227997
0,240000	0,767670	2,162018
0,241000	0,769806	4,699707
0,242000	0,793152	4,999847
0,243000	0,752258	4,999847
0,244000	0,815735	4,999847
0,245000	0,737000	4,999847
0,246000	0,836792	4,999847
0,247000	0,723267	4,999847
0,248000	0,855560	4,708099
0,249000	0,711975	4,999847
0,250000	0,852356	4,714203
0,251000	0,740051	3,890839
0,252000	0,827026	4,507599
0,253000	0,770569	4,999847
0,254000	0,805359	4,999847
0,255000	0,704346	4,999847
0,256000	0,746307	4,999847
0,257000	0,806580	4,999847
0,258000	0,761566	4,800415
0,259000	0,842743	3,324585
0,260000	0,752563	1,747894
0,261000	0,865936	4,569092
0,262000	0,740662	4,999847
0,263000	0,885315	4,999847
0,264000	0,738525	4,999847
0,265000	0,867767	4,999847
0,266000	0,772095	4,999847
0,267000	0,843201	4,999847
0,268000	0,802460	4,999847
0,269000	0,821991	4,463348
0,270000	0,829620	2,108612
0,271000	0,803375	4,184875
0,272000	0,854340	4,249268
0,273000	0,786896	4,999847
0,274000	0,876617	4,999847
0,275000	0,772858	4,999847
0,276000	0,896912	4,999847
0,277000	0,759735	4,999847
0,278000	0,910797	4,797363
0,279000	0,772705	3,334808
0,280000	0,884552	4,684448
0,281000	0,805817	3,818207
0,282000	0,858612	4,999847
0,283000	0,825806	4,999847
0,284000	0,836334	4,999847
0,285000	0,860748	4,999847
0,286000	0,821838	4,999847
0,287000	0,873260	4,999847
0,288000	0,801239	4,999847
0,289000	0,906067	4,853516
0,290000	0,791779	3,923645
0,291000	0,928497	4,786072
0,292000	0,781097	4,020691
0,293000	0,927734	4,999847
0,294000	0,808411	4,999847
0,295000	0,893555	4,999847
0,296000	0,837250	4,999847
0,297000	0,877991	4,999847
0,298000	0,869141	4,786072
0,299000	0,859680	4,019470
0,300000	0,895691	2,326965
0,301000	0,842590	4,999847
0,302000	0,919800	4,686737
0,303000	0,817871	4,999847
0,304000	0,937195	4,999847
0,305000	0,813293	4,999847
0,306000	0,960388	4,999847
0,307000	0,809631	4,999847
0,308000	0,944977	4,999847
0,309000	0,844574	4,521179
0,310000	0,920258	4,462738
0,311000	0,875854	3,145752
0,312000	0,899048	4,058685
0,313000	0,904236	4,905701
0,314000	0,879669	4,999847
0,315000	0,929718	4,999847
0,316000	0,864105	4,999847
0,317000	0,953064	4,999847
0,318000	0,849762	4,999847
0,319000	0,973969	3,515778
0,320000	0,837402	1,889954
0,321000	0,989838	4,478149
0,322000	0,847473	4,999847
0,323000	0,963287	4,999847
0,324000	0,880737	4,999847
0,325000	0,939636	4,999847
0,326000	0,911407	4,999847
0,327000	0,918884	4,999847
0,328000	0,938721	4,999847
0,329000	0,900574	4,257507
0,330000	0,963745	2,575073
0,331000	0,885162	4,999847
0,332000	0,986176	3,635559
0,333000	0,871429	4,999847
0,334000	1,006470	4,999847
0,335000	0,859528	4,999847
0,336000	1,007233	4,999847
0,337000	0,883789	4,999847
0,338000	0,981598	4,800262
0,339000	0,916901	2,711487
0,340000	0,959320	3,059998
0,341000	0,946655	4,999847
0,342000	0,939484	4,999847
0,343000	0,973053	4,999847
0,344000	0,922394	4,999847
0,345000	0,997314	4,999847
0,346000	0,907593	4,999847
0,347000	1,019592	4,999847
0,348000	0,894165	4,999847
0,349000	1,040497	4,528046
0,350000	0,886993	3,040924
0,351000	1,011353	4,155731
0,352000	0,915070	3,974609
0,353000	0,999908	4,999847
0,354000	0,952301	4,999847
0,355000	0,980835	4,999847
0,356000	0,982056	4,999847
0,357000	0,903015	4,999847
0,358000	0,950775	4,629211
0,359000	0,919647	3,176727
0,360000	1,020660	2,705688
0,361000	0,926666	4,118958
0,362000	1,052246	4,653320
0,363000	0,918579	4,999847
0,364000	1,074219	4,999847
0,365000	0,926056	4,999847
0,366000	1,049652	4,999847
0,367000	0,960388	4,999847
0,368000	1,026459	4,999847
0,369000	0,991211	3,700867
0,370000	1,005554	4,564514
0,371000	1,018524	3,441925
0,372000	0,987091	3,540192
0,373000	1,044159	4,999847
0,374000	0,970459	4,999847
0,375000	1,068573	4,999847
0,376000	0,956116	4,999847
0,377000	1,090393	4,999847
0,378000	0,917969	4,999847
0,379000	1,083069	2,882538
0,380000	0,959015	2,550964
0,381000	1,065369	4,999847
0,382000	0,995636	4,999847
0,383000	1,044464	4,999847
0,384000	1,025848	4,999847
0,385000	1,024475	4,999847
0,386000	1,053009	4,999847
0,387000	1,005402	4,999847
0,388000	1,078796	4,999847
0,389000	0,988312	4,426727
0,390000	1,100159	4,115753
0,391000	0,974426	3,153839
0,392000	1,116333	3,731384
0,393000	0,962219	4,999847
0,394000	1,099701	4,999847
0,395000	0,996246	4,999847
0,396000	1,074066	4,999847
0,397000	0,971985	4,999847
0,398000	0,988007	4,638367
0,399000	0,994263	3,424225
0,400000	0,997162	4,163361
0,401000	1,117706	2,837372
0,402000	0,992126	4,999847
0,403000	1,119690	4,999847
0,404000	0,977478	4,999847
0,405000	1,117859	4,999847
0,406000	0,991364	4,999847
0,407000	1,089325	4,999847
0,408000	1,024475	4,999847
0,409000	1,067505	3,843231
0,410000	1,054840	3,829346
0,411000	1,047668	4,869843
0,412000	1,083221	3,676147
0,413000	1,029968	4,999847
0,414000	1,107330	4,999847
0,415000	1,013947	4,999847
0,416000	1,122131	4,999847
0,417000	1,000366	4,999847
0,418000	1,128693	4,710541
0,419000	0,987549	3,441315
0,420000	1,111450	3,798218
0,421000	1,017761	4,191132
0,422000	1,086884	4,999847
0,423000	1,050873	4,999847
0,424000	1,067200	4,999847
0,425000	1,082458	4,999847
0,426000	1,050262	4,999847
0,427000	1,108856	4,999847
0,428000	1,035461	4,999847
0,429000	1,101532	3,711700
0,430000	1,020660	3,530426
0,431000	1,130829	3,299713
0,432000	1,009521	3,752747
0,433000	1,132812	4,999847
0,434000	1,007080	4,999847
0,435000	1,105957	4,999847
0,436000	1,026001	4,999847
0,437000	1,084137	4,999847
0,438000	1,077576	4,286957
0,439000	1,067657	3,020172
0,440000	1,107178	3,007965
0,441000	1,053009	3,821564
0,442000	1,125641	4,999847
0,443000	1,039886	4,999847
0,444000	0,966339	4,999847
0,445000	0,935974	4,999847
0,446000	0,922394	4,999847
0,447000	0,916595	4,999847
0,448000	0,913849	4,999847
0,449000	0,902863	3,943939
0,450000	0,889587	3,351746
0,451000	0,902557	4,277344
0,452000	0,908051	4,601746
0,453000	0,910187	4,999847
0,454000	0,910492	4,999847
0,455000	0,911255	4,999847
0,456000	0,911255	4,999847
0,457000	0,911407	4,999847
0,458000	0,911102	4,269562
0,459000	0,911102	3,912659
0,460000	0,832977	3,128052
0,461000	0,878143	4,300690
0,462000	0,897064	4,999847
0,463000	0,904694	4,999847
0,464000	0,836029	4,999847
0,465000	0,681000	4,999847
0,466000	0,600281	4,999847
0,467000	0,577698	4,999847
0,468000	0,561981	4,999847
0,469000	0,557098	4,555206
0,470000	0,558472	4,257050
0,471000	0,551910	3,948517
0,472000	0,561981	2,848206
0,473000	0,549469	4,999847
0,474000	0,566711	4,999847
0,475000	0,547485	4,999847
0,476000	0,571136	4,999847
0,477000	0,545959	4,999847
0,478000	0,572662	4,481354
0,479000	0,551147	4,084930
0,480000	0,567780	2,664337
0,481000	0,557098	4,999847
0,482000	0,565491	4,999847
0,483000	0,564880	4,999847
0,484000	0,563202	4,999847
0,485000	0,571289	4,999847
0,486000	0,560303	4,999847
0,487000	0,577545	4,999847
0,488000	0,557861	4,681091
0,489000	0,583191	4,754791
0,490000	0,555420	2,377930
0,491000	0,589752	3,791351
0,492000	0,554657	4,410553
0,493000	0,587616	4,999847
0,494000	0,563354	4,999847
0,495000	0,582275	4,999847
0,496000	0,571442	4,999847
0,497000	0,577393	4,999847
0,498000	0,579224	4,801331
0,499000	0,572968	3,914185
0,500000	0,586853	2,504425
0,501000	0,569153	4,705658
0,502000	0,594177	4,999847
0,503000	0,565948	4,999847
0,504000	0,601349	4,999847
0,505000	0,562439	4,999847
0,506000	0,607758	4,999847
0,507000	0,565643	4,999847
0,508000	0,601349	4,851227
0,509000	0,576172	4,618835
0,510000	0,594635	2,581177
0,511000	0,586243	4,999847
0,512000	0,589142	4,203339
0,513000	0,595551	4,999847
0,514000	0,583649	4,999847
0,515000	0,602875	4,999847
0,516000	0,563202	4,999847
0,517000	0,606537	4,999847
0,518000	0,571289	4,678802
0,519000	0,620270	3,751068
0,520000	0,569611	2,762146
0,521000	0,623932	4,441681
0,522000	0,578613	4,999847
0,523000	0,615082	4,999847
0,524000	0,590973	4,999847
0,525000	0,607452	4,999847
0,526000	0,602722	4,999847
0,527000	0,600433	4,999847
0,528000	0,613403	4,999847
0,529000	0,593567	4,999847
0,530000	0,623322	3,304596
0,531000	0,587311	3,036957
0,532000	0,633392	3,621674
0,533000	0,582123	4,999847
0,534000	0,642395	4,999847
0,535000	0,579071	4,999847
0,536000	0,638275	4,999847
0,537000	0,593262	4,999847
0,538000	0,628510	4,420319
0,539000	0,607147	4,131165
0,540000	0,618744	3,349609
0,541000	0,620117	3,522949
0,542000	0,610657	4,999847
0,543000	0,632019	4,999847
0,544000	0,603180	4,999847
0,545000	0,643158	4,999847
0,546000	0,596008	4,999847
0,547000	0,653229	4,999847
0,548000	0,589600	4,999847
0,549000	0,663452	3,823853
0,550000	0,592804	2,165680
0,551000	0,652008	3,798981
0,552000	0,609131	3,954926
0,553000	0,640564	4,999847
0,554000	0,624084	4,999847
0,555000	0,630341	4,999847
0,556000	0,638428	4,999847
0,557000	0,620270	4,999847
0,558000	0,651398	4,929352
0,559000	0,612335	3,546906
0,560000	0,663605	3,563385
0,561000	0,604706	3,982391
0,562000	0,583649	4,785461
0,563000	0,548553	4,999847
0,564000	0,658569	4,999847
0,565000	0,599823	4,999847
0,566000	0,661621	4,999847
0,567000	0,624695	4,999847
0,568000	0,651703	4,999847
0,569000	0,642853	4,440460
0,570000	0,641022	3,326721
0,571000	0,658264	3,311615
0,572000	0,630188	2,952118
0,573000	0,672302	4,999847
0,574000	0,620728	4,999847
0,575000	0,685120	4,999847
0,576000	0,611725	4,999847
0,577000	0,687714	4,999847
0,578000	0,601501	4,645233
0,579000	0,690918	3,506165
0,580000	0,625000	3,292847
0,581000	0,676727	4,777222
0,582000	0,644684	4,632111
0,583000	0,663605	4,999847
0,584000	0,662689	4,999847
0,585000	0,651093	4,999847
0,586000	0,679016	4,999847
0,587000	0,639801	4,999847
0,588000	0,694122	4,999847
0,589000	0,629730	4,174042
0,590000	0,708313	3,601227
0,591000	0,620575	4,131317
0,592000	0,721130	3,304901
0,593000	0,622406	4,999847
0,594000	0,706329	4,999847
0,595000	0,644531	4,999847
0,596000	0,689392	4,999847
0,597000	0,665283	4,999847
0,598000	0,674591	4,743958
0,599000	0,683899	3,597717
0,600000	0,661163	3,388214
0,601000	0,701294	4,381866
0,602000	0,649414	4,893799
0,603000	0,717010	4,999847
0,604000	0,638275	4,999847
0,605000	0,731812	4,999847
0,606000	0,628815	4,999847
0,607000	0,738373	4,999847
0,608000	0,641785	4,999847
0,609000	0,718384	4,038086
0,610000	0,665131	1,819305
0,611000	0,700989	3,626556
0,612000	0,686340	3,357086
0,613000	0,685577	4,999847
0,614000	0,706177	4,999847
0,615000	0,671387	4,999847
0,616000	0,724030	4,999847
0,617000	0,658569	4,999847
0,618000	0,740509	4,921722
0,619000	0,647430	3,592224
0,620000	0,756226	4,645233
0,621000	0,637817	3,397980
0,622000	0,751038	4,459839
0,623000	0,662384	4,999847
0,624000	0,730896	4,999847
0,625000	0,686798	4,999847
0,626000	0,712585	4,999847
0,627000	0,708923	4,999847
0,628000	0,696259	4,999847
0,629000	0,728912	3,984833
0,630000	0,681763	2,005920
0,631000	0,748138	4,999847
0,632000	0,668640	3,198395
0,633000	0,765076	4,999847
0,634000	0,657196	4,999847
0,635000	0,781097	4,999847
0,636000	0,656891	4,999847
0,637000	0,763550	4,999847
0,638000	0,684662	4,999847
0,639000	0,742493	3,583527
0,640000	0,709686	3,092499
0,641000	0,724030	3,532104
0,642000	0,732727	4,819794
0,643000	0,707397	4,999847
0,644000	0,753784	4,999847
0,645000	0,692444	4,999847
0,646000	0,772552	4,999847
0,647000	0,679321	4,999847
0,648000	0,790710	4,999847
0,649000	0,667572	3,535614
0,650000	0,800171	2,388306
0,651000	0,680847	4,206390
0,652000	0,776062	3,698578
0,653000	0,709534	4,999847
0,654000	0,755157	4,999847
0,655000	0,734711	4,999847
0,656000	0,736084	4,999847
0,657000	0,758209	4,999847
0,658000	0,719604	4,581451
0,659000	0,779724	2,840881
0,660000	0,704803	4,999847
0,661000	0,799103	3,326874
0,662000	0,691071	4,598389
0,663000	0,817108	4,999847
0,664000	0,660706	4,999847
0,665000	0,746002	4,999847
0,666000	0,678406	4,999847
0,667000	0,777740	4,999847
0,668000	0,730896	4,999847
0,669000	0,766449	3,591614
0,670000	0,761261	4,925995
0,671000	0,749359	3,182983
0,672000	0,785675	2,955322
0,673000	0,733032	4,999847
0,674000	0,807037	4,999847
0,675000	0,718689	4,999847
0,676000	0,827026	4,999847
0,677000	0,692902	4,999847
0,678000	0,839844	4,999847
0,679000	0,701752	2,906342
0,680000	0,827179	3,821411
0,681000	0,735474	3,622589
0,682000	0,804291	4,579620
0,683000	0,764771	4,999847
0,684000	0,783844	4,999847
0,685000	0,791168	4,999847
0,686000	0,765533	4,999847
0,687000	0,815125	4,999847
0,688000	0,748901	4,999847
0,689000	0,836334	4,195099
0,690000	0,735168	4,172821
0,691000	0,856323	4,496002
0,692000	0,722809	4,380035
0,693000	0,851593	4,999847
0,694000	0,727234	4,999847
0,695000	0,840302	4,999847
0,696000	0,765686	4,999847
0,697000	0,820160	4,999847
0,698000	0,795746	4,411469
0,699000	0,800323	3,134460
0,700000	0,821991	4,267883
0,701000	0,782471	3,354034
0,702000	0,845795	4,999847
0,703000	0,767059	4,999847
0,704000	0,867615	4,999847
0,705000	0,753632	4,999847
0,706000	0,886841	4,999847
0,707000	0,741730	4,999847
0,708000	0,875397	4,999847
0,709000	0,764160	4,065399
0,710000	0,858917	4,079437
0,711000	0,799255	3,884735
0,712000	0,837860	3,079681
0,713000	0,828552	4,999847
0,714000	0,818787	4,999847
0,715000	0,854492	4,999847
0,716000	0,801544	4,999847
0,717000	0,877838	4,999847
0,718000	0,786591	4,365540
0,719000	0,899048	3,441315
0,720000	0,773773	3,463745
0,721000	0,918427	4,646606
0,722000	0,769501	4,530640
0,723000	0,902557	4,999847
0,724000	0,803375	4,999847
0,725000	0,878143	4,999847
0,726000	0,834503	4,999847
0,727000	0,856781	4,999847
0,728000	0,862122	4,999847
0,729000	0,837555	3,924408
0,730000	0,886688	4,999847
0,731000	0,820770	2,998962
0,732000	0,909576	3,793793
0,733000	0,806732	4,999847
0,734000	0,930176	4,999847
0,735000	0,794678	4,999847
0,736000	0,945740	4,999847
0,737000	0,804749	4,999847
0,738000	0,919647	4,435425
0,739000	0,838318	3,883667
0,740000	0,896149	3,264771
0,741000	0,867920	4,916992
0,742000	0,875549	4,916840
0,743000	0,895081	4,999847
0,744000	0,857697	4,999847
0,745000	0,920258	4,999847
0,746000	0,841827	4,999847
0,747000	0,942383	4,999847
0,748000	0,828552	4,885406
0,749000	0,962372	4,677124
0,750000	0,816650	2,778168
0,751000	0,962830	4,097137
0,752000	0,840302	3,342285
0,753000	0,936432	4,999847
0,754000	0,872650	4,999847
0,755000	0,914612	4,999847
0,756000	0,902557	4,999847
0,757000	0,894775	4,999847
0,758000	0,928955	4,372864
0,759000	0,877838	4,075165
0,760000	0,952606	3,545380
0,761000	0,862885	3,417816
0,762000	0,974274	4,517517
0,763000	0,849915	4,999847
0,764000	0,994263	4,999847
0,765000	0,842133	4,999847
0,766000	0,980682	4,999847
0,767000	0,779877	4,999847
0,768000	0,915070	4,999847
0,769000	0,891113	4,999847
0,770000	0,926514	2,391815
0,771000	0,933685	4,292450
0,772000	0,913849	3,901062
0,773000	0,961761	4,999847
0,774000	0,897980	4,999847
0,775000	0,985413	4,999847
0,776000	0,883942	4,999847
0,777000	1,006470	4,999847
0,778000	0,871429	4,305573
0,779000	1,024628	3,671875
0,780000	0,878754	4,787903
0,781000	0,998230	3,904419
0,782000	0,912933	4,999847
0,783000	0,974884	4,999847
0,784000	0,943451	4,999847
0,785000	0,954437	4,999847
0,786000	0,971069	4,999847
0,787000	0,936432	4,999847
0,788000	0,995941	4,999847
0,789000	0,920563	4,426880
0,790000	1,018219	2,973328
0,791000	0,906830	4,140778
0,792000	1,039429	3,890228
0,793000	0,895081	4,999847
0,794000	1,044312	4,999847
0,795000	0,916290	4,999847
0,796000	1,019592	4,999847
0,797000	0,949554	4,999847
0,798000	0,996857	4,659882
0,799000	0,979004	4,040222
0,800000	0,977173	2,198181
0,801000	1,005707	4,844513
0,802000	0,959625	4,999847
0,803000	1,030273	4,999847
0,804000	0,945129	4,999847
0,805000	1,053314	4,999847
0,806000	0,931549	4,999847
0,807000	1,074829	4,999847
0,808000	0,921021	4,999847
0,809000	1,064911	4,999847
0,810000	0,955048	2,691040
0,811000	1,041260	4,586487
0,812000	0,986481	3,132172
0,813000	1,019440	4,999847
0,814000	1,014862	4,999847
0,815000	0,999756	4,999847
0,816000	1,041260	4,999847
0,817000	0,981903	4,999847
0,818000	1,065674	4,978027
0,819000	0,966797	4,191895
0,820000	1,087494	2,652588
0,821000	0,953217	4,414520
0,822000	1,104279	4,538879
0,823000	0,955963	4,999847
0,824000	1,077423	4,999847
0,825000	0,989075	4,999847
0,826000	1,053925	4,999847
0,827000	1,019135	4,999847
0,828000	1,032562	4,999847
0,829000	1,047058	4,494324
0,830000	1,013489	3,179169
0,831000	1,073608	4,391937
0,832000	0,996857	3,051605
0,833000	1,095886	4,999847
0,834000	0,981750	4,999847
0,835000	0,977173	4,999847
0,836000	0,986176	4,999847
0,837000	0,990448	4,999847
0,838000	1,037903	4,953156
0,839000	1,058655	3,040314
0,840000	1,039886	2,646179
0,841000	1,036530	4,999847
0,842000	1,066589	4,800415
0,843000	1,019287	4,999847
0,844000	1,092224	4,999847
0,845000	1,002045	4,999847
0,846000	1,109924	4,999847
0,847000	0,988007	4,999847
0,848000	1,119843	4,999847
0,849000	0,958252	4,212952
0,850000	1,083527	3,212585
0,851000	0,984955	4,785767
0,852000	1,058655	3,613586
0,853000	1,016998	4,999847
0,854000	1,037750	4,999847
0,855000	1,046600	4,999847
0,856000	1,020508	4,999847
0,857000	1,073151	4,999847
0,858000	1,004486	4,999847
0,859000	1,091614	3,567200
0,860000	0,990448	3,777924
0,861000	1,100006	4,999847
0,862000	0,978241	4,675903
0,863000	1,102753	4,999847
0,864000	0,974884	4,999847
0,865000	1,076508	4,999847
0,866000	1,009827	4,999847
0,867000	1,055756	4,999847
0,868000	1,043243	4,999847
0,869000	0,983124	4,558563
0,870000	1,014252	2,844086
0,871000	1,021423	4,444885
0,872000	1,092682	2,719269
0,873000	1,010132	4,999847
0,874000	1,102448	4,999847
0,875000	0,997925	4,999847
0,876000	1,104584	4,999847
0,877000	0,987396	4,999847
0,878000	1,101990	4,761505
0,879000	0,998840	3,267517
0,880000	1,071777	4,280243
0,881000	0,969391	3,919830
0,882000	0,923309	4,571533
0,883000	0,903778	4,999847
0,884000	0,895233	4,999847
0,885000	0,891266	4,999847
0,886000	0,889893	4,999847
0,887000	0,889130	4,999847
0,888000	0,888519	4,999847
0,889000	0,888519	4,665222
0,890000	0,888214	3,968964
0,891000	0,888977	4,308624
0,892000	0,888367	3,345947
0,893000	0,888214	4,999847
0,894000	0,887756	4,999847
0,895000	0,887756	4,999847
0,896000	0,887756	4,999847
0,897000	0,887604	4,999847
0,898000	0,888062	4,790497
0,899000	0,887604	3,259888
0,900000	0,887909	2,611084
0,901000	0,887909	4,654388
0,902000	0,881805	4,294891
0,903000	0,696564	4,999847
0,904000	0,592346	4,999847
0,905000	0,575409	4,999847
0,906000	0,541840	4,999847
0,907000	0,550537	4,999847
0,908000	0,537567	4,999847
0,909000	0,544281	4,454041
0,910000	0,541077	4,522552
0,911000	0,542297	4,487457
0,912000	0,545044	3,734894
0,913000	0,538635	4,999847
0,914000	0,550385	4,999847
0,915000	0,518036	4,999847
0,916000	0,547485	4,999847
0,917000	0,518494	4,999847
0,918000	0,552673	4,810486
0,919000	0,529785	3,021088
0,920000	0,559540	4,973907
0,921000	0,538635	3,675385
0,922000	0,557098	4,620514
0,923000	0,546265	4,999847
0,924000	0,554047	4,999847
0,925000	0,552979	4,999847
0,926000	0,550690	4,999847
0,927000	0,559692	4,999847
0,928000	0,547791	4,899139
0,929000	0,566101	4,504089
0,930000	0,544586	3,584900
0,931000	0,572205	4,999847
0,932000	0,542145	2,440643
0,933000	0,578003	4,999847
0,934000	0,542297	4,999847
0,935000	0,575104	4,999847
0,936000	0,551453	4,999847
0,937000	0,569763	4,999847
0,938000	0,559845	4,638519
0,939000	0,565033	3,488007
0,940000	0,568085	2,565002
0,941000	0,560608	3,925934
0,942000	0,575256	4,661560
0,943000	0,556335	4,999847
0,944000	0,582733	4,999847
0,945000	0,552216	4,999847
0,946000	0,590363	4,999847
0,947000	0,549164	4,999847
0,948000	0,596008	4,999847
0,949000	0,553741	4,224854
0,950000	0,588837	3,821106
0,951000	0,564728	3,361206
0,952000	0,582428	3,567352
0,953000	0,574799	4,999847
0,954000	0,576324	4,999847
0,955000	0,584259	4,999847
0,956000	0,572052	4,999847
0,957000	0,593262	4,999847
0,958000	0,565948	4,692993
0,959000	0,602417	3,520508
0,960000	0,560608	3,487396
0,961000	0,609436	3,017731
0,962000	0,556335	4,564972
0,963000	0,610046	4,999847
0,964000	0,566559	4,999847
0,965000	0,601807	4,999847
0,966000	0,579071	4,999847
0,967000	0,593872	4,999847
0,968000	0,590515	4,999847
0,969000	0,586395	4,154968
0,970000	0,601196	3,822632
0,971000	0,579834	2,587280
0,972000	0,537720	3,066711
0,973000	0,542603	4,999847
0,974000	0,607300	4,999847
0,975000	0,562592	4,999847
0,976000	0,627289	4,999847
0,977000	0,565643	4,999847
0,978000	0,623932	4,339294
0,979000	0,580597	3,442230
0,980000	0,613861	3,846436
0,981000	0,594788	4,125824
0,982000	0,604553	4,678802
0,983000	0,607300	4,999847
0,984000	0,596466	4,999847
0,985000	0,619507	4,999847
0,986000	0,588531	4,999847
0,987000	0,630493	4,999847
0,988000	0,581970	4,991302
0,989000	0,607605	4,239502
0,990000	0,561371	4,212036
0,991000	0,643768	4,999847
0,992000	0,578003	3,314514
0,993000	0,636139	4,791718
0,994000	0,596466	4,999847
0,995000	0,625763	4,999847
0,996000	0,611420	4,999847
0,997000	0,615234	4,999847
0,998000	0,626068	4,616547
0,999000	0,606232	3,186798

