LabVIEW Measurement	
Writer_Version	2
Reader_Version	2
Separator	Tab
Decimal_Separator	,
Multi_Headings	Yes
X_Columns	One
Time_Pref	Absolute
Operator	d.nicolai
Date	2023/11/09
Time	16:46:38,4425126999997713665
***End_of_Header***	
	
Channels	2		
Samples	1000	1000	
Date	2023/11/09	2023/11/09	
Time	16:46:52,4685137999997579033	16:46:52,4685137999997579033	
Y_Unit_Label	Volts	Volts	
X_Dimension	Time	Time	
X0	0,0000000000000000E+0	0,0000000000000000E+0	
Delta_X	0,001000	0,001000	
***End_of_Header***			
X_Value	powebox	triggerbox	Comment
0,000000	0,736542	1,019592
0,001000	0,741577	4,929657
0,002000	0,721436	4,999847
0,003000	0,764618	4,999847
0,004000	0,706635	4,999847
0,005000	0,785370	4,999847
0,006000	0,692596	4,999847
0,007000	0,804749	4,999847
0,008000	0,681305	4,999847
0,009000	0,820007	3,873596
0,010000	0,687866	2,997589
0,011000	0,795593	3,233948
0,012000	0,708923	4,287109
0,013000	0,769348	4,999847
0,014000	0,743713	4,999847
0,015000	0,740356	4,999847
0,016000	0,764313	4,999847
0,017000	0,720825	4,999847
0,018000	0,786133	4,999847
0,019000	0,718536	3,214264
0,020000	0,805054	3,280792
0,021000	0,704803	4,835663
0,022000	0,830383	4,642792
0,023000	0,695801	4,999847
0,024000	0,835114	4,999847
0,025000	0,717773	4,999847
0,026000	0,811005	4,999847
0,027000	0,740814	4,999847
0,028000	0,785828	4,999847
0,029000	0,773773	3,530579
0,030000	0,769653	2,545166
0,031000	0,799713	4,999847
0,032000	0,753632	3,806305
0,033000	0,822906	4,999847
0,034000	0,738678	4,999847
0,035000	0,842743	4,999847
0,036000	0,726013	4,999847
0,037000	0,861969	4,999847
0,038000	0,717468	4,999847
0,039000	0,850830	2,665405
0,040000	0,750580	3,261871
0,041000	0,827332	4,999847
0,042000	0,780640	4,999847
0,043000	0,806427	4,999847
0,044000	0,807343	4,999847
0,045000	0,787811	4,999847
0,046000	0,831604	4,999847
0,047000	0,772247	4,999847
0,048000	0,853729	4,999847
0,049000	0,758209	3,957062
0,050000	0,860748	4,243469
0,051000	0,740662	3,526917
0,052000	0,889893	3,859558
0,053000	0,750580	4,999847
0,054000	0,867310	4,999847
0,055000	0,784149	4,999847
0,056000	0,844879	4,999847
0,057000	0,813599	4,999847
0,058000	0,825043	4,999847
0,059000	0,839691	2,999115
0,060000	0,807800	3,324738
0,061000	0,864258	4,999847
0,062000	0,792236	4,999847
0,063000	0,885773	4,999847
0,064000	0,779572	4,999847
0,065000	0,905151	4,999847
0,066000	0,767517	4,999847
0,067000	0,911102	4,999847
0,068000	0,787354	4,999847
0,069000	0,885620	4,473572
0,070000	0,818634	4,056091
0,071000	0,863953	3,926239
0,072000	0,847015	3,297577
0,073000	0,820465	4,999847
0,074000	0,862579	4,999847
0,075000	0,823364	4,999847
0,076000	0,894623	4,999847
0,077000	0,812683	4,999847
0,078000	0,917358	4,962616
0,079000	0,800018	3,272552
0,080000	0,919800	2,394257
0,081000	0,782928	4,999847
0,082000	0,925446	4,999847
0,083000	0,821381	4,999847
0,084000	0,903625	4,999847
0,085000	0,853424	4,999847
0,086000	0,883331	4,999847
0,087000	0,880890	4,999847
0,088000	0,847473	4,999847
0,089000	0,899353	3,723450
0,090000	0,845490	2,883606
0,091000	0,927429	4,388580
0,092000	0,833588	4,259491
0,093000	0,949402	4,999847
0,094000	0,821838	4,999847
0,095000	0,968170	4,999847
0,096000	0,825348	4,999847
0,097000	0,945587	4,999847
0,098000	0,774841	4,837036
0,099000	0,872498	3,684235
0,100000	0,866547	3,930054
0,101000	0,893402	3,623657
0,102000	0,914154	4,999847
0,103000	0,886078	4,999847
0,104000	0,941620	4,999847
0,105000	0,872040	4,999847
0,106000	0,964508	4,999847
0,107000	0,858917	4,999847
0,108000	0,985107	4,999847
0,109000	0,847168	4,475098
0,110000	0,993500	3,547974
0,111000	0,864258	3,425446
0,112000	0,968018	3,804626
0,113000	0,896912	4,999847
0,114000	0,946045	4,999847
0,115000	0,925903	4,999847
0,116000	0,926819	4,999847
0,117000	0,952454	4,999847
0,118000	0,909882	4,999847
0,119000	0,976257	2,856140
0,120000	0,895233	3,579865
0,121000	0,997620	4,875031
0,122000	0,858002	4,720612
0,123000	1,007690	4,999847
0,124000	0,865479	4,999847
0,125000	1,011200	4,999847
0,126000	0,899963	4,999847
0,127000	0,988617	4,999847
0,128000	0,932159	4,999847
0,129000	0,967407	3,310699
0,130000	0,960388	4,228363
0,131000	0,948944	3,624420
0,132000	0,985718	3,496552
0,133000	0,931854	4,999847
0,134000	1,009216	4,999847
0,135000	0,917664	4,999847
0,136000	1,031647	4,999847
0,137000	0,905304	4,999847
0,138000	1,051941	4,230194
0,139000	0,904388	3,163147
0,140000	1,032410	4,781647
0,141000	0,937805	3,311615
0,142000	1,010132	4,999847
0,143000	0,967407	4,999847
0,144000	0,989075	4,999847
0,145000	0,994720	4,999847
0,146000	0,970154	4,999847
0,147000	1,019897	4,999847
0,148000	0,953827	4,999847
0,149000	1,043854	4,317322
0,150000	0,939484	3,601074
0,151000	1,064758	3,878326
0,152000	0,926666	4,679718
0,153000	1,071625	4,999847
0,154000	0,939636	4,999847
0,155000	1,045380	4,999847
0,156000	0,971222	4,999847
0,157000	1,022797	4,999847
0,158000	0,999603	4,871521
0,159000	1,002960	2,994232
0,160000	1,026917	2,644501
0,161000	0,984650	4,666595
0,162000	1,051788	4,999847
0,163000	0,968170	4,999847
0,164000	1,072540	4,999847
0,165000	0,954132	4,999847
0,166000	0,954132	4,999847
0,167000	0,963135	4,999847
0,168000	0,967102	4,999847
0,169000	1,004333	4,402618
0,170000	1,039734	4,073181
0,171000	1,005402	3,632660
0,172000	1,017456	4,883423
0,173000	1,032867	4,999847
0,174000	0,999451	4,999847
0,175000	1,058502	4,999847
0,176000	0,983276	4,999847
0,177000	1,054840	4,999847
0,178000	0,965729	4,533844
0,179000	1,089630	3,787689
0,180000	0,956421	4,643860
0,181000	1,087952	3,858032
0,182000	0,961304	4,999847
0,183000	1,059113	4,999847
0,184000	1,001434	4,999847
0,185000	1,039276	4,999847
0,186000	1,032562	4,999847
0,187000	1,021423	4,999847
0,188000	1,060181	4,999847
0,189000	1,005096	4,575195
0,190000	1,082001	2,750092
0,191000	0,991364	4,151917
0,192000	1,093750	4,166870
0,193000	0,978546	4,999847
0,194000	1,097717	4,999847
0,195000	0,967102	4,999847
0,196000	1,079865	4,999847
0,197000	0,993958	4,999847
0,198000	1,057281	4,805145
0,199000	1,010437	3,666229
0,200000	1,030273	3,755493
0,201000	0,960693	4,346161
0,202000	1,016388	4,999847
0,203000	1,080017	4,999847
0,204000	1,009979	4,999847
0,205000	1,094971	4,999847
0,206000	0,997925	4,999847
0,207000	1,099548	4,999847
0,208000	0,986786	4,605408
0,209000	1,100616	4,245911
0,210000	0,983276	4,732666
0,211000	1,075287	3,268127
0,212000	0,968781	4,477386
0,213000	0,920868	4,999847
0,214000	0,900421	4,999847
0,215000	0,892029	4,999847
0,216000	0,887909	4,999847
0,217000	0,885925	4,999847
0,218000	0,885468	4,488525
0,219000	0,885162	4,058533
0,220000	0,885010	3,384094
0,221000	0,885315	4,414368
0,222000	0,884857	4,999847
0,223000	0,884705	4,999847
0,224000	0,885010	4,999847
0,225000	0,885010	4,999847
0,226000	0,885010	4,999847
0,227000	0,883789	4,999847
0,228000	0,884247	4,805145
0,229000	0,883942	4,892578
0,230000	0,884705	4,167328
0,231000	0,884552	2,629089
0,232000	0,861511	4,247131
0,233000	0,687714	4,999847
0,234000	0,586548	4,999847
0,235000	0,570679	4,999847
0,236000	0,541077	4,999847
0,237000	0,546722	4,999847
0,238000	0,537262	4,462738
0,239000	0,540619	3,190765
0,240000	0,540466	2,721405
0,241000	0,537872	4,162140
0,242000	0,551453	4,999847
0,243000	0,541382	4,999847
0,244000	0,555878	4,999847
0,245000	0,539398	4,999847
0,246000	0,560608	4,999847
0,247000	0,537415	4,999847
0,248000	0,565338	4,999847
0,249000	0,538635	4,645081
0,250000	0,562744	3,194733
0,251000	0,545654	4,516754
0,252000	0,559235	4,557800
0,253000	0,552673	4,999847
0,254000	0,556488	4,999847
0,255000	0,559540	4,999847
0,256000	0,553131	4,999847
0,257000	0,566254	4,999847
0,258000	0,549927	4,419556
0,259000	0,572205	3,324890
0,260000	0,547028	3,450470
0,261000	0,578003	3,922272
0,262000	0,544891	4,999847
0,263000	0,581055	4,999847
0,264000	0,549774	4,999847
0,265000	0,576019	4,999847
0,266000	0,558319	4,999847
0,267000	0,570984	4,999847
0,268000	0,566406	4,999847
0,269000	0,566559	4,687042
0,270000	0,574188	2,782440
0,271000	0,562286	4,868774
0,272000	0,582275	4,325256
0,273000	0,558624	4,999847
0,274000	0,589447	4,999847
0,275000	0,554962	4,999847
0,276000	0,596619	4,999847
0,277000	0,551758	4,999847
0,278000	0,596313	4,549408
0,279000	0,562286	4,224854
0,280000	0,589447	3,850403
0,281000	0,572510	3,531494
0,282000	0,583191	4,999847
0,283000	0,582275	4,999847
0,284000	0,577393	4,999847
0,285000	0,591431	4,999847
0,286000	0,571747	4,999847
0,287000	0,600281	4,999847
0,288000	0,567017	4,956055
0,289000	0,608826	4,500275
0,290000	0,562744	3,639069
0,291000	0,616608	4,000702
0,292000	0,560913	3,670654
0,293000	0,607758	4,999847
0,294000	0,573273	4,999847
0,295000	0,599670	4,999847
0,296000	0,585327	4,999847
0,297000	0,591888	4,999847
0,298000	0,596466	4,851532
0,299000	0,585175	3,369598
0,300000	0,606995	3,028564
0,301000	0,578766	3,122253
0,302000	0,616913	4,999847
0,303000	0,494537	4,999847
0,304000	0,593109	4,999847
0,305000	0,553741	4,999847
0,306000	0,626068	4,999847
0,307000	0,571747	4,999847
0,308000	0,620270	4,999847
0,309000	0,588074	4,803925
0,310000	0,610962	2,862854
0,311000	0,601959	4,230347
0,312000	0,602875	4,701691
0,313000	0,614166	4,999847
0,314000	0,594635	4,999847
0,315000	0,625610	4,999847
0,316000	0,587158	4,999847
0,317000	0,635986	4,999847
0,318000	0,580597	4,642944
0,319000	0,646362	3,790283
0,320000	0,574799	2,319183
0,321000	0,645599	4,955444
0,322000	0,589142	4,999542
0,323000	0,633392	4,999847
0,324000	0,604858	4,999847
0,325000	0,622864	4,999847
0,326000	0,619812	4,999847
0,327000	0,613098	4,999847
0,328000	0,632935	4,999847
0,329000	0,603943	4,999847
0,330000	0,645905	2,812347
0,331000	0,595856	4,687500
0,332000	0,657349	3,593445
0,333000	0,588684	4,999847
0,334000	0,668335	4,999847
0,335000	0,587311	4,999847
0,336000	0,659180	4,999847
0,337000	0,605774	4,999847
0,338000	0,646057	4,309235
0,339000	0,622864	3,256989
0,340000	0,634003	3,114777
0,341000	0,638580	4,306488
0,342000	0,622559	4,999847
0,343000	0,652924	4,999847
0,344000	0,613251	4,999847
0,345000	0,666656	4,999847
0,346000	0,603943	4,999847
0,347000	0,678864	4,999847
0,348000	0,596161	4,999847
0,349000	0,688171	4,792786
0,350000	0,603790	3,543396
0,351000	0,671997	3,630676
0,352000	0,623474	3,992462
0,353000	0,657654	4,999847
0,354000	0,641937	4,999847
0,355000	0,644226	4,999847
0,356000	0,659027	4,999847
0,357000	0,632477	4,999847
0,358000	0,674591	4,999847
0,359000	0,621948	4,269562
0,360000	0,688782	2,635956
0,361000	0,612488	4,705353
0,362000	0,702209	4,975281
0,363000	0,603790	4,999847
0,364000	0,701599	4,999847
0,365000	0,621643	4,999847
0,366000	0,684204	4,999847
0,367000	0,642853	4,999847
0,368000	0,668488	4,999847
0,369000	0,661774	4,999847
0,370000	0,654602	2,718964
0,371000	0,679779	3,525391
0,372000	0,641937	2,885437
0,373000	0,696411	4,999847
0,374000	0,630951	4,999847
0,375000	0,711365	4,999847
0,376000	0,620728	4,999847
0,377000	0,725555	4,999847
0,378000	0,617218	4,966431
0,379000	0,714722	3,960876
0,380000	0,641327	3,546906
0,381000	0,696259	4,027252
0,382000	0,663757	4,951324
0,383000	0,679932	4,999847
0,384000	0,683441	4,999847
0,385000	0,665283	4,999847
0,386000	0,702515	4,999847
0,387000	0,652313	4,999847
0,388000	0,719147	4,999847
0,389000	0,640411	4,078064
0,390000	0,734863	3,156586
0,391000	0,629578	4,999847
0,392000	0,747681	3,760071
0,393000	0,636902	4,999847
0,394000	0,726624	4,999847
0,395000	0,662231	4,999847
0,396000	0,707703	4,999847
0,397000	0,685272	4,999847
0,398000	0,690918	4,931641
0,399000	0,706177	2,900543
0,400000	0,675507	3,450928
0,401000	0,725250	3,704834
0,402000	0,661621	4,968719
0,403000	0,742950	4,999847
0,404000	0,649719	4,999847
0,405000	0,709686	4,999847
0,406000	0,584106	4,999847
0,407000	0,737305	4,999847
0,408000	0,649109	4,999847
0,409000	0,734100	4,176025
0,410000	0,683136	2,912140
0,411000	0,718536	3,884888
0,412000	0,708466	4,560394
0,413000	0,701599	4,999847
0,414000	0,729828	4,999847
0,415000	0,686188	4,999847
0,416000	0,749664	4,999847
0,417000	0,672455	4,999847
0,418000	0,767670	4,999847
0,419000	0,660095	3,331299
0,420000	0,784454	3,558960
0,421000	0,653992	3,093872
0,422000	0,773315	4,180756
0,423000	0,682983	4,999847
0,424000	0,751190	4,999847
0,425000	0,709381	4,999847
0,426000	0,731506	4,999847
0,427000	0,733643	4,999847
0,428000	0,713959	4,999847
0,429000	0,756073	4,469452
0,430000	0,698853	2,888184
0,431000	0,776367	4,999847
0,432000	0,685120	3,005371
0,433000	0,792694	4,999847
0,434000	0,666046	4,999847
0,435000	0,807648	4,999847
0,436000	0,678558	4,999847
0,437000	0,786591	4,999847
0,438000	0,709839	4,717255
0,439000	0,765228	3,101654
0,440000	0,737152	2,837219
0,441000	0,745850	4,412079
0,442000	0,761108	4,248199
0,443000	0,728607	4,999847
0,444000	0,783691	4,999847
0,445000	0,713654	4,999847
0,446000	0,803986	4,999847
0,447000	0,700073	4,999847
0,448000	0,822601	4,999847
0,449000	0,688324	3,524017
0,450000	0,826721	3,491211
0,451000	0,708771	4,999847
0,452000	0,801697	2,734222
0,453000	0,738831	4,999847
0,454000	0,780182	4,999847
0,455000	0,754547	4,999847
0,456000	0,756378	4,999847
0,457000	0,787964	4,999847
0,458000	0,743561	4,999847
0,459000	0,812225	3,660736
0,460000	0,729523	4,043274
0,461000	0,833282	4,789581
0,462000	0,716553	4,725189
0,463000	0,852051	4,999847
0,464000	0,707855	4,999847
0,465000	0,842133	4,999847
0,466000	0,739899	4,999847
0,467000	0,817871	4,999847
0,468000	0,769806	4,999847
0,469000	0,796356	3,457642
0,470000	0,796356	4,448700
0,471000	0,778198	3,265381
0,472000	0,821075	4,528656
0,473000	0,753174	4,999847
0,474000	0,840149	4,999847
0,475000	0,745850	4,999847
0,476000	0,861969	4,999847
0,477000	0,734406	4,999847
0,478000	0,881042	4,999847
0,479000	0,738831	3,575287
0,480000	0,854340	4,452362
0,481000	0,768280	3,780823
0,482000	0,829010	4,018707
0,483000	0,796356	4,999847
0,484000	0,808105	4,999847
0,485000	0,822754	4,999847
0,486000	0,791931	4,999847
0,487000	0,844879	4,999847
0,488000	0,773926	4,999847
0,489000	0,866394	3,866577
0,490000	0,760345	2,942810
0,491000	0,885620	4,891663
0,492000	0,748749	2,980194
0,493000	0,892487	4,999847
0,494000	0,767517	4,999847
0,495000	0,867157	4,999847
0,496000	0,799408	4,999847
0,497000	0,844421	4,999847
0,498000	0,827637	4,999847
0,499000	0,825806	3,206329
0,500000	0,853577	2,881317
0,501000	0,808563	4,968872
0,502000	0,875244	4,962769
0,503000	0,793610	4,999847
0,504000	0,897522	4,999847
0,505000	0,781708	4,999847
0,506000	0,916901	4,999847
0,507000	0,770264	4,999847
0,508000	0,823517	4,999847
0,509000	0,766449	4,330292
0,510000	0,869598	4,908600
0,511000	0,826721	3,067169
0,512000	0,861053	4,033508
0,513000	0,860291	4,999847
0,514000	0,844879	4,999847
0,515000	0,885925	4,999847
0,516000	0,828857	4,999847
0,517000	0,908508	4,999847
0,518000	0,814667	4,876404
0,519000	0,929565	3,681488
0,520000	0,802460	3,535004
0,521000	0,948334	3,531799
0,522000	0,804596	4,691467
0,523000	0,926514	4,999847
0,524000	0,837860	4,999847
0,525000	0,903625	4,999847
0,526000	0,868835	4,999847
0,527000	0,885925	4,999847
0,528000	0,894318	4,822083
0,529000	0,865326	4,424286
0,530000	0,919189	3,288727
0,531000	0,849609	4,374847
0,532000	0,941162	2,987671
0,533000	0,836792	4,999847
0,534000	0,961456	4,999847
0,535000	0,825195	4,999847
0,536000	0,971069	4,999847
0,537000	0,840912	4,999847
0,538000	0,944672	4,343109
0,539000	0,873260	3,327026
0,540000	0,922699	3,403778
0,541000	0,902100	4,041290
0,542000	0,902710	4,623566
0,543000	0,928650	4,999847
0,544000	0,885925	4,999847
0,545000	0,952301	4,999847
0,546000	0,871735	4,999847
0,547000	0,973358	4,999847
0,548000	0,858002	4,999847
0,549000	0,993195	3,807068
0,550000	0,847015	3,575287
0,551000	0,988617	4,526062
0,552000	0,877533	3,116455
0,553000	0,964355	4,999847
0,554000	0,908966	4,999847
0,555000	0,943756	4,999847
0,556000	0,937958	4,999847
0,557000	0,924225	4,999847
0,558000	0,962524	4,092865
0,559000	0,908813	3,022461
0,560000	0,986023	3,743439
0,561000	0,894165	4,228516
0,562000	1,007233	4,999847
0,563000	0,882263	4,999847
0,564000	1,027832	4,999847
0,565000	0,881195	4,999847
0,566000	1,010284	4,999847
0,567000	0,915222	4,999847
0,568000	0,987549	4,668121
0,569000	0,945587	4,520569
0,570000	0,966644	3,413086
0,571000	0,972595	4,514618
0,572000	0,948639	4,135590
0,573000	0,997009	4,999847
0,574000	0,932465	4,999847
0,575000	1,020660	4,999847
0,576000	0,918579	4,999847
0,577000	1,042480	4,999847
0,578000	0,906677	4,795990
0,579000	1,054687	3,965759
0,580000	0,919800	3,798828
0,581000	1,030273	3,104706
0,582000	0,951996	4,921875
0,583000	1,007843	4,999847
0,584000	0,980682	4,999847
0,585000	0,987701	4,999847
0,586000	1,007690	4,999847
0,587000	0,969391	4,999847
0,588000	1,031647	4,676666
0,589000	0,952911	4,744720
0,590000	1,054382	3,632812
0,591000	0,938873	3,745728
0,592000	1,072845	3,489075
0,593000	0,926208	4,999847
0,594000	1,064758	4,999847
0,595000	0,952911	4,999847
0,596000	1,040344	4,999847
0,597000	0,983734	4,999847
0,598000	1,017914	4,289246
0,599000	1,011353	2,993317
0,600000	0,998688	3,889923
0,601000	1,038055	4,999847
0,602000	0,981445	4,705658
0,603000	0,948792	4,999847
0,604000	0,960083	4,999847
0,605000	0,965118	4,999847
0,606000	0,966949	4,999847
0,607000	1,085968	4,999847
0,608000	0,954132	4,661255
0,609000	1,085968	4,476166
0,610000	0,859070	3,016357
0,611000	1,036072	4,999847
0,612000	0,957794	4,307098
0,613000	1,043091	4,999847
0,614000	1,003113	4,999847
0,615000	1,024475	4,999847
0,616000	1,032104	4,999847
0,617000	1,006012	4,999847
0,618000	1,058502	4,799042
0,619000	0,989532	3,411865
0,620000	1,078796	4,953613
0,621000	0,975342	3,418274
0,622000	1,089630	4,999847
0,623000	0,962982	4,999847
0,624000	1,093597	4,999847
0,625000	0,964508	4,999847
0,626000	1,064301	4,999847
0,627000	0,998230	4,999847
0,628000	1,043396	4,911346
0,629000	1,029968	4,999847
0,630000	1,025696	4,269714
0,631000	1,058502	2,817841
0,632000	1,010132	3,305511
0,633000	1,081085	4,999847
0,634000	0,995789	4,999847
0,635000	1,091766	4,999847
0,636000	0,983429	4,999847
0,637000	1,095581	4,999847
0,638000	0,972595	4,437714
0,639000	1,086426	3,523712
0,640000	0,989685	4,246063
0,641000	1,060944	2,951660
0,642000	1,024323	4,940033
0,643000	1,042480	4,999847
0,644000	1,056061	4,999847
0,645000	1,027679	4,999847
0,646000	1,081085	4,999847
0,647000	1,014252	4,999847
0,648000	1,093750	4,974213
0,649000	1,002197	4,382172
0,650000	0,933838	3,051147
0,651000	0,905151	4,330139
0,652000	0,892181	3,565521
0,653000	0,887146	4,999847
0,654000	0,884552	4,999847
0,655000	0,883789	4,999847
0,656000	0,883484	4,999847
0,657000	0,883179	4,999847
0,658000	0,882874	4,168854
0,659000	0,881653	4,180756
0,660000	0,881500	1,990662
0,661000	0,882263	4,730072
0,662000	0,882416	4,999847
0,663000	0,882416	4,999847
0,664000	0,882416	4,999847
0,665000	0,882263	4,999847
0,666000	0,882111	4,999847
0,667000	0,881958	4,999847
0,668000	0,882111	4,891205
0,669000	0,882263	4,154968
0,670000	0,786591	2,318115
0,671000	0,645905	4,662323
0,672000	0,580139	4,653931
0,673000	0,554657	4,999847
0,674000	0,545807	4,999847
0,675000	0,536804	4,999847
0,676000	0,543671	4,999847
0,677000	0,531616	4,999847
0,678000	0,547180	4,100037
0,679000	0,529327	4,076996
0,680000	0,551300	3,203888
0,681000	0,527649	4,143372
0,682000	0,553131	4,999847
0,683000	0,532532	4,999847
0,684000	0,549622	4,999847
0,685000	0,538483	4,999847
0,686000	0,546875	4,999847
0,687000	0,544586	4,999847
0,688000	0,543823	4,662170
0,689000	0,550537	4,642334
0,690000	0,541077	2,883759
0,691000	0,556335	4,999847
0,692000	0,538330	3,745422
0,693000	0,562134	4,999847
0,694000	0,536346	4,999847
0,695000	0,567932	4,999847
0,696000	0,534821	4,999847
0,697000	0,566711	4,999847
0,698000	0,542908	4,576263
0,699000	0,562134	4,294739
0,700000	0,550690	2,649841
0,701000	0,557251	4,202576
0,702000	0,558472	4,776611
0,703000	0,553436	4,999847
0,704000	0,565491	4,999847
0,705000	0,550079	4,999847
0,706000	0,572510	4,999847
0,707000	0,546265	4,999847
0,708000	0,579529	4,999847
0,709000	0,543213	4,830780
0,710000	0,585937	3,054962
0,711000	0,545044	4,677277
0,712000	0,573425	4,201660
0,713000	0,501556	4,999847
0,714000	0,551453	4,999847
0,715000	0,555267	4,999847
0,716000	0,565186	4,999847
0,717000	0,572662	4,999847
0,718000	0,563202	4,808350
0,719000	0,583038	4,158325
0,720000	0,559692	3,582458
0,721000	0,591583	4,625244
0,722000	0,555115	4,950562
0,723000	0,599518	4,999847
0,724000	0,551758	4,999847
0,725000	0,602875	4,999847
0,726000	0,559082	4,999847
0,727000	0,594788	4,999847
0,728000	0,570374	4,999847
0,729000	0,587158	4,249268
0,730000	0,581360	4,386292
0,731000	0,579987	3,628387
0,732000	0,591583	3,346405
0,733000	0,573730	4,999847
0,734000	0,600281	4,999847
0,735000	0,567932	4,999847
0,736000	0,610199	4,999847
0,737000	0,563202	4,999847
0,738000	0,618896	4,685516
0,739000	0,559235	3,799133
0,740000	0,616455	3,037720
0,741000	0,572662	3,946686
0,742000	0,606995	4,460144
0,743000	0,585937	4,999847
0,744000	0,599060	4,999847
0,745000	0,598755	4,999847
0,746000	0,590668	4,999847
0,747000	0,609894	4,999847
0,748000	0,583038	4,999847
0,749000	0,619965	4,131927
0,750000	0,576477	2,365417
0,751000	0,630188	4,577789
0,752000	0,570526	3,335724
0,753000	0,639954	4,999847
0,754000	0,572205	4,999847
0,755000	0,629883	4,999847
0,756000	0,587463	4,999847
0,757000	0,618591	4,999847
0,758000	0,602417	4,890442
0,759000	0,608978	3,344269
0,760000	0,615692	4,112549
0,761000	0,599823	3,593292
0,762000	0,628052	4,610138
0,763000	0,591888	4,999847
0,764000	0,639954	4,999847
0,765000	0,584869	4,999847
0,766000	0,651093	4,999847
0,767000	0,579071	4,999847
0,768000	0,655975	4,999847
0,769000	0,587006	4,477386
0,770000	0,642548	2,918243
0,771000	0,604095	4,999847
0,772000	0,630493	3,199615
0,773000	0,619965	4,999847
0,774000	0,619659	4,999847
0,775000	0,634308	4,999847
0,776000	0,608063	4,999847
0,777000	0,646667	4,999847
0,778000	0,599670	4,614105
0,779000	0,660095	3,199158
0,780000	0,592041	4,062500
0,781000	0,672455	4,068909
0,782000	0,584869	4,402924
0,783000	0,669403	4,999847
0,784000	0,603485	4,999847
0,785000	0,654602	4,999847
0,786000	0,621796	4,999847
0,787000	0,641174	4,999847
0,788000	0,638733	4,999847
0,789000	0,629578	3,865356
0,790000	0,654297	3,606720
0,791000	0,618591	3,426208
0,792000	0,668793	2,886505
0,793000	0,608978	4,999847
0,794000	0,682831	4,999847
0,795000	0,600128	4,999847
0,796000	0,694885	4,999847
0,797000	0,600128	4,999847
0,798000	0,682526	4,453888
0,799000	0,621338	3,729706
0,800000	0,666504	3,769226
0,801000	0,641479	4,057159
0,802000	0,652771	4,744415
0,803000	0,659027	4,999847
0,804000	0,639191	4,999847
0,805000	0,675659	4,999847
0,806000	0,627594	4,999847
0,807000	0,690765	4,999847
0,808000	0,617065	4,999847
0,809000	0,705109	4,546051
0,810000	0,607452	4,542847
0,811000	0,713348	3,532562
0,812000	0,617981	3,472748
0,813000	0,694580	4,999847
0,814000	0,640717	4,999847
0,815000	0,585632	4,999847
0,816000	0,622711	4,999847
0,817000	0,646210	4,999847
0,818000	0,672913	4,999847
0,819000	0,646057	3,137817
0,820000	0,695953	4,236603
0,821000	0,635986	3,745270
0,822000	0,713348	4,809723
0,823000	0,625610	4,999847
0,824000	0,718536	4,999847
0,825000	0,612488	4,999847
0,826000	0,724335	4,999847
0,827000	0,637665	4,999847
0,828000	0,705719	4,999847
0,829000	0,661163	3,702240
0,830000	0,688629	3,167419
0,831000	0,666046	4,731598
0,832000	0,665741	3,526001
0,833000	0,699463	4,999847
0,834000	0,657501	4,999847
0,835000	0,719604	4,999847
0,836000	0,646057	4,999847
0,837000	0,737000	4,999847
0,838000	0,635071	4,909668
0,839000	0,752411	3,882294
0,840000	0,633240	4,258728
0,841000	0,738068	4,274902
0,842000	0,659485	4,297333
0,843000	0,717621	4,999847
0,844000	0,683899	4,999847
0,845000	0,699921	4,999847
0,846000	0,705719	4,999847
0,847000	0,683746	4,999847
0,848000	0,726013	4,999847
0,849000	0,669556	4,855652
0,850000	0,744629	4,470978
0,851000	0,656891	3,582916
0,852000	0,761719	3,956146
0,853000	0,645294	4,999847
0,854000	0,773468	4,999847
0,855000	0,655823	4,999847
0,856000	0,750580	4,999847
0,857000	0,683289	4,999847
0,858000	0,730286	4,999847
0,859000	0,708466	3,867187
0,860000	0,711517	3,052673
0,861000	0,730438	4,450989
0,862000	0,695496	4,853973
0,863000	0,751343	4,999847
0,864000	0,681152	4,999847
0,865000	0,770111	4,999847
0,866000	0,668488	4,999847
0,867000	0,787506	4,999847
0,868000	0,657043	4,999847
0,869000	0,786743	4,358673
0,870000	0,681000	3,616333
0,871000	0,763092	4,065552
0,872000	0,708923	3,925934
0,873000	0,742950	4,999847
0,874000	0,733948	4,999847
0,875000	0,724945	4,999847
0,876000	0,756683	4,999847
0,877000	0,708466	4,999847
0,878000	0,777588	4,933319
0,879000	0,694427	3,922272
0,880000	0,797272	4,405518
0,881000	0,681915	3,478088
0,882000	0,814514	4,999847
0,883000	0,677490	4,999847
0,884000	0,800629	4,999847
0,885000	0,708160	4,999847
0,886000	0,777893	4,999847
0,887000	0,736389	4,999847
0,888000	0,757446	4,987640
0,889000	0,762024	4,357758
0,890000	0,739288	3,526917
0,891000	0,784912	3,908997
0,892000	0,723724	4,136810
0,893000	0,805664	4,999847
0,894000	0,710297	4,999847
0,895000	0,825348	4,999847
0,896000	0,697937	4,999847
0,897000	0,840607	4,999847
0,898000	0,707092	4,147034
0,899000	0,815887	3,820648
0,900000	0,738525	3,864441
0,901000	0,793304	3,240662
0,902000	0,766602	4,999847
0,903000	0,773468	4,999847
0,904000	0,791779	4,999847
0,905000	0,756378	4,999847
0,906000	0,814972	4,999847
0,907000	0,740814	4,999847
0,908000	0,835571	4,999084
0,909000	0,727386	4,187775
0,910000	0,854797	4,070892
0,911000	0,716248	3,219452
0,912000	0,856628	3,683319
0,913000	0,739746	4,999847
0,914000	0,832062	4,999847
0,915000	0,769958	4,999847
0,916000	0,810547	4,999847
0,917000	0,749207	4,999847
0,918000	0,730743	4,350739
0,919000	0,797729	3,757019
0,920000	0,763855	3,470917
0,921000	0,841370	2,837982
0,922000	0,758209	4,999847
0,923000	0,865784	4,999847
0,924000	0,747223	4,999847
0,925000	0,885315	4,999847
0,926000	0,743408	4,999847
0,927000	0,873566	4,999847
0,928000	0,773163	4,863281
0,929000	0,849304	4,437103
0,930000	0,803528	3,563995
0,931000	0,828705	4,145660
0,932000	0,830688	3,376465
0,933000	0,811005	4,999847
0,934000	0,856018	4,999847
0,935000	0,795593	4,999847
0,936000	0,878601	4,999847
0,937000	0,781860	4,999847
0,938000	0,898895	4,636536
0,939000	0,769043	3,801270
0,940000	0,917053	4,399872
0,941000	0,776215	3,747864
0,942000	0,891876	4,999847
0,943000	0,808563	4,999847
0,944000	0,871277	4,999847
0,945000	0,838318	4,999847
0,946000	0,848694	4,999847
0,947000	0,865173	4,999847
0,948000	0,830994	4,739685
0,949000	0,888672	4,637299
0,950000	0,815735	3,086395
0,951000	0,911255	4,600525
0,952000	0,802917	3,904114
0,953000	0,931702	4,999847
0,954000	0,791016	4,999847
0,955000	0,935059	4,999847
0,956000	0,812225	4,999847
0,957000	0,909729	4,999847
0,958000	0,843964	4,102936
0,959000	0,888062	3,757629
0,960000	0,872955	3,094025
0,961000	0,870819	4,302979
0,962000	0,898895	4,999847
0,963000	0,851746	4,999847
0,964000	0,922852	4,999847
0,965000	0,837402	4,999847
0,966000	0,943451	4,999847
0,967000	0,824432	4,999847
0,968000	0,962830	4,999847
0,969000	0,792389	4,999847
0,970000	0,942078	2,909393
0,971000	0,847168	4,166260
0,972000	0,927277	4,139709
0,973000	0,878906	4,932098
0,974000	0,910645	4,999847
0,975000	0,908203	4,999847
0,976000	0,890808	4,999847
0,977000	0,935059	4,999847
0,978000	0,892029	4,797821
0,979000	0,966492	4,570770
0,980000	0,858154	3,286896
0,981000	0,975342	4,842987
0,982000	0,846405	4,999847
0,983000	0,994110	4,999847
0,984000	0,851135	4,999847
0,985000	0,970764	4,999847
0,986000	0,862274	4,999847
0,987000	0,939331	4,999847
0,988000	0,911560	4,999847
0,989000	0,924377	4,999847
0,990000	0,938721	3,526459
0,991000	0,907440	3,789520
0,992000	0,965118	3,772583
0,993000	0,893860	4,999847
0,994000	0,985718	4,999847
0,995000	0,880127	4,999847
0,996000	1,006775	4,999847
0,997000	0,868683	4,999847
0,998000	1,015015	4,854431
0,999000	0,886993	4,185486

